aX,aY,aZ,gX,gY,gZ
1.570,0.507,0.594,-140.076,-37.903,-1.831
1.646,0.460,0.686,-157.104,-44.189,-0.488
1.669,0.426,0.756,-172.485,-48.645,7.324
1.637,0.404,0.789,-185.181,-46.021,18.250
1.555,0.396,0.808,-194.214,-35.645,30.273
1.409,0.389,0.759,-197.021,-17.151,38.025
1.264,0.341,0.691,-192.871,7.935,38.879
1.089,0.259,0.600,-185.120,36.926,35.645
0.950,0.184,0.476,-176.331,69.214,28.687
0.801,0.064,0.357,-165.466,96.985,18.005
0.862,-0.093,0.261,-155.273,116.150,11.292
0.548,-0.373,-0.095,-146.545,115.112,23.682
0.321,-0.579,-0.334,-143.372,121.216,35.522
0.023,-0.712,-0.731,-141.479,127.991,41.443
-0.126,-0.701,-1.131,-137.451,144.897,45.593
-0.060,-0.591,-1.461,-124.329,165.955,44.617
-0.124,-0.441,-1.655,-100.281,174.683,39.612
-0.297,-0.379,-1.701,-64.331,185.242,7.751
-0.434,-0.287,-1.734,-38.086,176.880,-26.917
-0.460,-0.152,-1.844,-23.560,179.626,-25.574
-0.509,-0.078,-1.999,-13.000,173.706,-22.461
-0.513,-0.038,-2.140,-13.306,167.603,-23.071
-0.360,-0.051,-2.091,-25.879,152.222,-25.208
-0.401,0.047,-2.076,-41.809,106.018,-36.072
-0.410,0.135,-1.924,-61.646,56.335,-43.396
-0.305,0.173,-1.804,-80.383,16.846,-44.189
-0.459,0.200,-1.699,-87.463,-23.071,-55.969
-0.341,0.236,-1.465,-87.036,-38.696,-77.026
-0.127,0.160,-1.304,-74.158,-39.001,-95.337
0.223,-0.085,-1.162,-43.213,-32.593,-107.117
0.628,-0.439,-0.983,1.221,-32.288,-104.736
0.909,-0.772,-0.807,50.781,-30.945,-82.581
0.955,-0.827,-0.711,92.102,-18.860,-38.208
0.839,-0.391,-0.804,103.516,1.160,18.799
0.578,0.179,-0.874,81.055,5.432,61.829
0.345,0.543,-0.971,43.518,-18.860,71.716
0.141,0.818,-0.977,1.892,-54.932,54.077
0.078,0.992,-0.988,-27.710,-75.989,25.208
0.150,0.987,-0.991,-31.860,-73.792,-4.456
0.290,0.798,-0.969,-14.893,-57.556,-30.457
0.470,0.508,-0.921,9.888,-38.940,-49.377
0.618,0.147,-0.854,34.058,-24.231,-58.838
0.730,-0.167,-0.771,49.316,-13.794,-57.129
0.791,-0.359,-0.709,52.246,-7.263,-46.265
0.815,-0.372,-0.694,45.715,-2.380,-30.273
0.779,-0.260,-0.714,33.936,4.700,-12.085
0.714,-0.109,-0.762,22.400,9.705,1.221
0.640,0.011,-0.810,14.832,8.972,7.751
0.591,0.097,-0.840,9.644,4.456,9.521
0.569,0.165,-0.837,3.967,-1.282,8.789
0.564,0.213,-0.829,-2.075,-4.822,6.165
0.571,0.248,-0.818,-5.310,-6.165,3.601
0.597,0.245,-0.793,-4.456,-7.446,0.671
0.604,0.177,-0.761,-0.244,-8.301,-1.221
0.604,0.120,-0.724,5.188,-6.714,1.404
0.603,0.082,-0.687,6.104,-2.930,6.348
0.581,0.087,-0.678,2.625,2.686,11.597
0.550,0.139,-0.725,-2.502,10.193,15.198
0.534,0.189,-0.789,-6.226,14.771,14.221
0.524,0.214,-0.825,-8.728,15.137,10.132
0.521,0.226,-0.846,-9.644,15.015,6.165
0.532,0.221,-0.873,-7.568,15.503,2.930
0.547,0.208,-0.899,-3.845,16.052,-0.366
0.568,0.182,-0.909,0.061,15.076,-2.075
0.583,0.144,-0.899,3.479,11.963,-2.686
0.588,0.106,-0.881,5.188,8.423,-2.197
0.581,0.089,-0.857,4.761,4.883,-0.793
0.577,0.092,-0.831,2.502,1.587,1.099
0.567,0.099,-0.813,-0.793,-0.244,2.625
0.557,0.129,-0.821,-3.113,-0.549,4.272
0.554,0.156,-0.823,-3.784,-1.099,4.089
0.549,0.174,-0.831,-3.296,-1.648,2.747
0.550,0.181,-0.830,-1.465,-2.075,0.549
0.555,0.168,-0.822,1.770,-1.648,-1.343
0.566,0.147,-0.816,5.005,-0.305,-2.380
0.572,0.125,-0.808,6.775,1.221,-2.808
0.589,0.102,-0.800,7.385,2.014,-3.052
0.598,0.095,-0.803,6.409,2.808,-3.113
0.601,0.092,-0.798,3.784,4.272,-2.747
0.599,0.089,-0.810,1.587,6.226,-1.831
0.604,0.098,-0.825,0.122,8.057,-0.244
0.599,0.110,-0.844,-0.366,9.033,1.404
0.589,0.126,-0.864,-0.061,9.094,2.991
0.571,0.155,-0.877,0.977,8.423,4.211
0.556,0.184,-0.884,2.869,6.714,4.333
0.547,0.186,-0.880,4.150,4.944,3.418
0.545,0.181,-0.871,4.700,3.540,2.563
0.544,0.173,-0.863,5.310,2.747,1.709
0.548,0.168,-0.852,5.127,1.770,1.160
0.548,0.163,-0.837,4.700,1.160,0.671
0.556,0.151,-0.830,4.333,1.221,0.244
0.559,0.146,-0.821,3.540,1.770,0.061
0.560,0.140,-0.822,3.296,2.319,-0.183
0.561,0.145,-0.828,3.357,2.686,0.183
0.554,0.156,-0.832,3.845,2.441,0.793
0.549,0.164,-0.830,4.639,1.282,0.610
0.547,0.156,-0.822,5.432,0.732,0.305
0.545,0.150,-0.814,5.432,0.732,0.000
0.549,0.146,-0.814,4.517,1.221,0.000
0.548,0.149,-0.820,3.540,1.770,0.122
0.546,0.161,-0.822,2.625,2.197,0.549
0.541,0.173,-0.828,2.136,2.441,0.305
0.547,0.172,-0.835,2.319,2.808,-0.610
0.559,0.168,-0.844,2.747,3.235,-1.648
0.566,0.160,-0.849,2.686,3.052,-2.258
0.568,0.151,-0.847,2.380,2.075,-2.441
0.567,0.151,-0.846,1.892,1.221,-2.258
0.564,0.142,-0.836,2.258,0.488,-2.075
0.564,0.134,-0.829,2.441,0.305,-1.465
0.562,0.126,-0.826,2.441,0.671,-0.549
0.561,0.125,-0.821,1.770,0.732,0.244
0.558,0.133,-0.823,0.610,1.099,1.221
0.553,0.149,-0.831,-0.244,1.648,2.075
0.554,0.158,-0.832,-0.488,1.526,2.258
0.554,0.164,-0.835,-0.366,1.526,1.709
0.557,0.169,-0.837,0.183,1.831,1.038
0.557,0.168,-0.829,0.977,1.709,0.000
0.557,0.164,-0.826,1.221,2.014,-0.916
0.558,0.159,-0.832,1.526,2.991,-0.916
1.749,-0.113,1.260,-98.206,38.574,-22.034
1.894,-0.262,1.265,-131.836,46.631,-12.512
1.963,-0.324,1.199,-166.931,49.377,3.418
1.906,-0.246,1.073,-196.899,48.828,29.907
1.842,-0.209,0.987,-215.698,51.941,64.148
1.652,-0.122,0.871,-226.074,47.974,84.106
1.489,-0.017,0.774,-232.483,45.044,95.703
1.322,0.074,0.677,-240.967,46.997,101.074
1.193,0.084,0.575,-248.108,52.002,107.727
0.999,-0.012,0.453,-252.686,53.955,116.394
0.766,-0.117,0.319,-257.996,56.091,121.765
0.440,-0.188,0.089,-264.282,59.448,125.427
0.032,-0.224,-0.230,-272.827,71.655,128.113
-0.355,-0.156,-0.616,-278.137,99.731,123.230
-0.604,-0.021,-1.094,-271.912,141.479,105.469
-0.614,0.095,-1.555,-249.329,187.988,80.933
-0.474,0.121,-1.835,-213.989,219.849,63.538
-0.301,0.019,-1.981,-176.270,219.055,58.777
-0.259,-0.044,-1.971,-143.555,188.904,62.378
-1.115,0.219,-2.142,-116.943,139.038,72.021
-0.339,-0.057,-1.896,-90.332,144.470,75.562
-0.982,0.042,-2.203,-73.730,134.277,21.545
-0.684,0.111,-2.231,-64.453,138.672,-4.639
-0.536,0.162,-2.299,-64.636,122.986,-14.282
-0.435,0.199,-2.273,-55.847,109.558,-30.579
-0.435,0.146,-2.200,-43.701,81.970,-44.617
-0.292,0.166,-2.020,-39.246,50.720,-53.955
-0.208,0.141,-1.844,-33.447,11.414,-53.894
-0.116,0.120,-1.584,-23.621,-23.865,-59.814
-0.038,0.107,-1.350,-12.817,-48.706,-65.430
0.017,0.083,-1.160,-3.418,-56.396,-63.477
0.180,0.047,-0.985,10.864,-43.152,-59.631
0.382,-0.013,-0.880,28.015,-21.973,-66.040
0.653,-0.094,-0.798,43.152,-4.883,-69.763
0.885,-0.172,-0.734,52.368,0.000,-68.909
1.031,-0.241,-0.691,54.443,-7.874,-60.669
1.072,-0.264,-0.661,46.387,-25.879,-44.861
0.984,-0.186,-0.626,30.701,-44.922,-23.499
0.808,0.023,-0.601,11.353,-59.021,-3.052
0.634,0.288,-0.585,-4.822,-65.552,8.728
0.503,0.489,-0.569,-11.475,-61.035,9.399
0.442,0.589,-0.558,-7.996,-42.786,3.418
0.459,0.573,-0.584,2.991,-15.747,-2.991
0.523,0.489,-0.647,15.869,9.644,-8.850
0.593,0.359,-0.712,25.513,27.222,-13.184
0.647,0.216,-0.748,28.381,33.203,-16.785
0.691,0.098,-0.787,25.940,31.860,-17.883
0.707,0.038,-0.821,21.301,26.733,-15.381
0.711,0.028,-0.831,17.151,19.531,-11.047
0.708,0.040,-0.832,14.343,12.756,-6.958
0.685,0.075,-0.828,12.878,7.019,-3.113
0.645,0.115,-0.814,11.475,3.479,1.465
0.589,0.211,-0.821,10.010,0.793,6.104
0.551,0.259,-0.812,11.353,-0.854,8.545
0.500,0.325,-0.787,7.690,-4.517,8.179
0.475,0.366,-0.774,5.127,-5.066,6.042
0.478,0.370,-0.762,3.906,-3.540,1.282
0.508,0.344,-0.766,3.540,0.427,-2.991
0.543,0.299,-0.766,3.601,6.592,-6.531
0.581,0.243,-0.770,3.967,12.451,-8.789
0.614,0.194,-0.782,3.418,17.090,-9.399
0.639,0.172,-0.811,2.991,19.592,-9.094
0.655,0.152,-0.850,3.418,19.958,-7.874
0.657,0.137,-0.871,5.371,18.005,-5.127
0.635,0.148,-0.866,7.080,14.282,-1.282
0.595,0.185,-0.856,8.362,10.803,2.686
0.558,0.226,-0.839,9.094,8.362,5.493
0.533,0.260,-0.819,8.484,6.592,6.470
0.519,0.286,-0.798,6.714,4.395,5.371
0.515,0.290,-0.769,4.456,2.380,3.052
0.519,0.280,-0.753,3.784,3.418,1.221
0.540,0.283,-0.758,4.517,6.104,0.122
0.554,0.271,-0.774,6.775,8.911,-1.465
0.564,0.245,-0.775,10.132,10.254,-2.808
0.562,0.237,-0.789,14.160,10.986,-3.052
0.564,0.228,-0.787,18.127,12.634,-2.502
0.614,0.203,-0.795,21.423,13.733,-2.380
0.501,0.276,-0.880,23.376,10.864,-5.371
0.519,0.274,-0.829,21.484,11.292,-4.089
0.510,0.285,-0.843,19.958,10.925,-2.747
0.506,0.300,-0.842,19.592,9.521,-3.540
0.521,0.297,-0.828,20.874,8.423,-5.005
0.534,0.286,-0.844,23.682,7.629,-6.592
0.550,0.291,-0.828,25.635,6.165,-7.751
0.568,0.269,-0.803,27.649,5.981,-7.446
0.559,0.247,-0.790,30.701,7.568,-6.653
0.578,0.228,-0.800,30.579,10.803,-4.028
0.578,0.225,-0.803,26.611,12.573,-1.526
0.564,0.241,-0.808,20.996,11.780,0.183
0.539,0.269,-0.823,14.465,9.521,0.427
0.528,0.293,-0.831,8.362,6.836,0.366
0.516,0.327,-0.849,5.066,4.211,-0.244
0.522,0.337,-0.865,5.127,2.136,-0.977
0.526,0.328,-0.851,6.714,-0.488,-2.197
0.548,0.316,-0.842,9.827,-1.831,-2.808
0.568,0.292,-0.839,12.817,-2.625,-3.113
0.571,0.283,-0.813,14.038,-3.906,-3.479
0.566,0.263,-0.789,14.282,-4.333,-2.991
0.569,0.248,-0.781,13.855,-2.869,-1.770
0.554,0.252,-0.761,11.230,-1.160,0.671
0.542,0.281,-0.734,9.033,1.465,2.869
0.538,0.302,-0.750,7.507,4.700,3.418
0.526,0.321,-0.766,5.676,7.080,3.418
0.531,0.335,-0.802,5.310,9.033,3.357
0.528,0.344,-0.822,6.409,9.583,2.686
0.528,0.332,-0.832,8.545,9.338,1.770
0.538,0.314,-0.837,10.681,8.545,1.465
0.543,0.297,-0.835,11.414,6.958,1.404
0.540,0.290,-0.815,10.803,5.127,1.404
0.540,0.285,-0.796,9.766,4.822,1.831
0.537,0.286,-0.791,8.667,5.859,2.197
0.532,0.301,-0.802,8.240,7.202,2.319
0.525,0.304,-0.805,8.179,8.240,2.441
0.520,0.311,-0.805,6.958,6.836,1.404
0.517,0.308,-0.812,5.981,5.310,0.366
0.518,0.315,-0.820,5.737,4.272,-0.122
0.520,0.322,-0.828,6.470,2.869,-0.671
0.529,0.318,-0.826,8.179,1.404,-1.526
0.537,0.306,-0.819,8.911,0.732,-2.136
1.714,-0.257,1.272,-17.090,99.060,18.677
1.941,-0.382,1.421,-26.917,124.390,31.799
2.107,-0.501,1.432,-50.537,140.259,49.500
2.146,-0.563,1.386,-91.614,140.808,69.275
2.029,-0.527,1.279,-139.465,130.005,88.013
1.812,-0.376,1.150,-179.016,120.789,104.370
1.571,-0.204,0.990,-198.303,122.375,118.103
1.337,-0.071,0.782,-198.608,134.705,130.981
1.141,-0.121,0.614,-185.913,151.978,145.325
0.928,-0.195,0.449,-172.791,157.715,153.442
0.733,-0.257,0.323,-165.771,159.668,162.292
0.478,-0.261,0.185,-171.326,158.508,171.021
0.194,-0.271,0.005,-187.561,155.396,174.988
-0.178,-0.279,-0.229,-210.144,151.123,175.049
-0.764,-0.203,-0.622,-234.192,152.161,171.021
-1.107,-0.013,-1.105,-246.948,161.682,156.738
-1.224,0.254,-1.690,-239.746,176.086,126.343
-1.102,0.467,-2.124,-225.159,199.707,94.727
-0.963,0.572,-2.294,-203.064,205.078,79.163
-0.719,0.644,-2.318,-163.208,182.129,76.172
-1.577,1.152,-2.255,-112.000,146.484,78.003
-0.326,0.479,-1.976,-50.903,144.043,83.069
-0.854,0.653,-1.776,-21.729,123.840,18.372
-0.914,0.485,-1.590,2.441,114.258,-5.615
-0.921,0.208,-1.549,15.259,126.709,-5.981
-0.953,0.267,-1.619,2.136,155.579,-18.738
-0.867,0.456,-1.746,-23.010,166.565,-35.950
-0.845,0.612,-1.816,-49.438,152.832,-60.181
-0.657,0.655,-1.807,-62.134,122.375,-87.402
-0.526,0.636,-1.656,-58.838,89.233,-107.605
-0.380,0.561,-1.591,-47.668,58.777,-118.835
-0.124,0.418,-1.446,-27.710,41.748,-118.469
0.110,0.266,-1.386,-0.916,26.123,-104.614
0.282,0.113,-1.244,23.376,11.780,-86.426
0.427,-0.045,-1.137,38.940,-0.244,-73.181
0.576,-0.182,-1.013,38.391,-12.268,-68.970
0.683,-0.205,-0.925,24.658,-25.513,-66.895
0.850,-0.230,-0.840,10.132,-31.799,-62.134
0.760,-0.121,-0.776,-8.423,-40.955,-54.626
0.686,0.061,-0.778,-24.658,-51.392,-34.302
0.630,0.299,-0.777,-26.978,-49.988,-14.587
0.511,0.476,-0.774,-16.602,-47.546,-4.333
0.384,0.557,-0.736,1.465,-40.955,-1.892
0.316,0.546,-0.678,24.658,-24.475,-1.709
0.276,0.511,-0.659,43.091,-4.028,-1.831
0.263,0.453,-0.679,53.040,16.418,-3.784
0.289,0.371,-0.734,53.528,31.677,-6.470
0.288,0.312,-0.808,43.640,36.804,-8.850
0.312,0.308,-0.890,30.640,36.133,-11.108
0.352,0.305,-0.948,19.958,30.273,-13.184
0.395,0.296,-0.991,13.306,21.240,-14.587
0.416,0.294,-0.998,9.583,11.108,-13.794
0.411,0.267,-0.991,8.118,1.953,-11.841
0.427,0.261,-0.962,8.789,-2.625,-9.399
0.443,0.248,-0.930,8.240,-7.019,-5.310
0.411,0.263,-0.888,6.714,-12.146,0.854
0.381,0.289,-0.838,4.211,-14.648,6.165
0.339,0.345,-0.792,0.732,-15.076,9.521
0.305,0.412,-0.784,-2.502,-11.292,10.193
0.286,0.435,-0.796,-4.028,-6.104,6.531
0.291,0.426,-0.824,-3.967,-1.221,1.465
0.304,0.411,-0.857,-2.014,3.723,-1.465
0.316,0.392,-0.881,2.075,8.240,-2.502
0.341,0.365,-0.901,6.348,10.559,-3.845
0.380,0.335,-0.916,10.803,12.146,-3.906
0.420,0.306,-0.924,15.930,13.245,-2.075
0.387,0.287,-0.899,19.836,13.245,0.183
0.375,0.292,-0.887,22.888,13.550,3.845
0.379,0.317,-0.888,24.048,13.428,6.531
0.365,0.330,-0.888,22.217,10.986,5.615
0.349,0.355,-0.877,18.188,7.080,3.906
0.335,0.369,-0.866,13.855,4.883,2.930
0.329,0.379,-0.867,10.864,4.456,2.441
0.326,0.377,-0.872,9.888,5.066,2.441
0.319,0.366,-0.864,10.254,6.592,3.052
0.332,0.342,-0.871,11.292,8.728,4.456
0.338,0.332,-0.874,10.559,10.681,6.592
0.333,0.341,-0.871,7.812,11.169,7.996
0.329,0.373,-0.889,5.005,11.292,8.484
0.327,0.409,-0.908,2.319,10.376,6.348
0.326,0.423,-0.917,0.854,7.812,2.625
0.322,0.427,-0.913,1.099,5.798,-0.488
0.321,0.419,-0.918,2.930,5.432,-1.892
0.327,0.405,-0.923,4.944,5.127,-2.197
0.337,0.395,-0.930,6.287,4.089,-1.831
0.343,0.383,-0.930,7.629,2.502,-1.099
0.338,0.370,-0.917,8.301,0.488,-0.122
0.335,0.361,-0.900,8.728,-0.732,1.160
0.335,0.356,-0.891,8.301,-1.038,2.502
0.334,0.362,-0.882,6.897,-0.977,3.723
0.336,0.388,-0.880,5.066,-1.221,4.578
0.347,0.411,-0.897,3.540,-1.831,3.540
0.349,0.409,-0.897,3.235,-3.052,1.343
0.350,0.411,-0.896,3.906,-4.700,-0.122
0.343,0.405,-0.896,5.310,-5.859,-1.099
0.334,0.396,-0.887,5.981,-7.568,-1.953
0.333,0.389,-0.876,6.287,-9.460,-2.380
0.334,0.385,-0.864,6.714,-10.254,-2.197
0.336,0.373,-0.853,6.958,-9.338,-1.343
0.341,0.364,-0.844,7.141,-7.690,0.000
0.341,0.363,-0.836,6.897,-6.104,1.160
0.346,0.367,-0.829,6.165,-4.517,2.563
0.355,0.380,-0.828,4.700,-3.113,3.784
0.365,0.387,-0.841,3.174,-2.075,4.089
0.369,0.389,-0.854,1.953,-1.648,3.845
0.363,0.387,-0.862,1.587,-1.709,3.540
0.352,0.394,-0.865,1.160,-2.319,2.991
0.341,0.396,-0.868,1.221,-2.563,2.869
0.336,0.406,-0.869,1.709,-2.563,2.563
0.337,0.404,-0.869,2.869,-2.014,1.831
0.337,0.395,-0.872,3.662,-1.343,1.038
0.343,0.386,-0.866,3.723,-1.099,0.916
0.345,0.380,-0.864,3.113,-0.916,1.221
0.348,0.382,-0.864,2.197,-0.122,2.258
0.350,0.392,-0.868,1.038,0.244,2.869
0.352,0.389,-0.871,0.061,0.061,2.747
0.354,0.391,-0.869,-0.427,-0.549,2.808
0.352,0.395,-0.864,-0.854,-0.916,2.441
0.349,0.394,-0.857,-0.916,-1.221,2.197
1.874,-0.558,1.673,42.786,95.154,-19.531
2.068,-0.833,1.935,18.311,130.249,-23.315
2.218,-1.044,1.968,-38.208,157.227,-18.005
2.307,-1.058,1.997,-117.310,166.565,1.343
2.236,-0.804,1.865,-186.462,168.274,27.039
2.047,-0.513,1.702,-221.924,163.574,57.068
1.779,-0.374,1.555,-228.455,161.743,80.017
1.575,-0.379,1.281,-223.816,175.476,96.375
1.385,-0.513,0.987,-213.928,198.486,109.192
1.090,-0.596,0.734,-205.872,201.599,120.605
0.753,-0.645,0.529,-206.360,198.853,129.028
0.330,-0.653,0.334,-219.116,196.716,131.226
-0.160,-0.605,0.077,-238.586,195.801,127.563
-0.628,-0.519,-0.278,-255.920,200.867,130.127
-1.047,-0.282,-0.914,-260.742,215.393,140.747
-1.358,0.043,-1.564,-256.409,230.469,144.714
-1.271,0.206,-2.196,-232.788,244.202,136.292
-0.937,0.323,-2.538,-187.073,237.854,125.366
-0.710,0.401,-2.569,-141.174,200.745,123.352
-0.764,0.417,-2.379,-110.168,148.010,124.390
-1.308,0.884,-2.108,-89.783,105.713,119.263
-0.792,0.460,-2.018,-57.678,106.812,93.140
-1.517,0.540,-1.824,-50.476,120.117,13.123
-1.170,0.470,-1.901,-42.542,153.625,-2.563
-0.978,0.433,-1.850,-36.804,178.711,-1.526
-1.001,0.405,-1.933,-24.353,181.702,-12.024
-0.824,0.335,-1.991,-11.047,168.152,-31.372
-0.716,0.328,-1.897,-4.578,144.470,-40.955
-0.497,0.382,-1.757,-3.052,109.131,-46.204
-0.371,0.399,-1.601,-3.845,68.604,-58.655
-0.232,0.432,-1.449,-5.432,30.884,-70.801
-0.168,0.446,-1.335,-5.127,0.854,-71.899
-0.086,0.409,-1.185,-0.366,-17.151,-70.251
0.026,0.368,-1.011,8.606,-21.851,-70.801
0.190,0.351,-0.857,16.541,-15.503,-70.984
0.381,0.315,-0.743,18.799,-5.310,-73.669
0.404,0.168,-0.751,15.076,3.113,-77.759
0.567,0.129,-0.765,7.690,7.751,-78.674
0.660,0.040,-0.803,-0.488,10.620,-74.341
0.728,0.013,-0.854,-8.057,10.315,-64.026
0.756,0.019,-0.898,-12.451,2.686,-52.856
0.733,0.009,-0.918,-11.841,-5.554,-42.419
0.621,-0.030,-0.921,-7.141,-10.986,-32.104
0.619,0.028,-0.918,-1.099,-9.827,-22.278
0.649,0.109,-0.905,6.531,-6.348,-15.320
0.618,0.112,-0.907,13.794,-0.488,-9.644
0.576,0.121,-0.896,19.165,6.287,-4.333
0.524,0.149,-0.895,20.691,10.498,-2.136
0.469,0.182,-0.907,18.188,10.803,-3.479
0.424,0.212,-0.939,13.184,8.545,-6.531
0.408,0.208,-0.943,13.550,8.362,-8.057
0.368,0.228,-0.959,12.024,2.869,-7.629
0.344,0.230,-0.974,5.188,-9.155,-7.996
0.346,0.257,-0.973,4.883,-14.771,-5.676
0.316,0.253,-0.967,11.780,-17.151,-2.747
0.342,0.210,-0.951,19.836,-20.569,-1.831
0.355,0.193,-0.928,26.367,-22.217,0.061
0.341,0.201,-0.898,28.748,-23.010,1.770
0.321,0.217,-0.870,25.574,-25.635,1.038
0.311,0.245,-0.860,16.174,-29.541,-1.831
0.327,0.289,-0.855,6.653,-31.555,-4.517
0.351,0.321,-0.852,-0.854,-32.654,-7.629
0.397,0.333,-0.853,-5.310,-33.142,-10.132
0.451,0.341,-0.841,-7.935,-32.166,-10.681
0.476,0.355,-0.828,-7.629,-30.640,-9.216
0.471,0.347,-0.809,-4.456,-28.198,-8.545
0.471,0.316,-0.785,0.916,-23.865,-9.216
0.469,0.288,-0.770,8.118,-16.113,-8.789
0.463,0.256,-0.768,13.184,-7.996,-7.568
0.457,0.242,-0.778,15.015,-1.831,-6.042
0.464,0.238,-0.792,13.672,2.563,-4.578
0.471,0.235,-0.803,8.484,4.944,-3.601
0.474,0.230,-0.816,1.526,4.700,-3.540
0.483,0.214,-0.828,-5.005,3.845,-2.991
0.486,0.208,-0.852,-9.705,3.296,-1.282
0.483,0.230,-0.890,-12.634,2.991,0.610
0.471,0.247,-0.933,-12.329,2.014,0.732
0.463,0.256,-0.957,-7.935,1.160,0.183
0.464,0.269,-0.963,-0.854,1.770,1.160
0.471,0.281,-0.961,8.301,2.441,2.319
0.477,0.279,-0.949,15.808,2.258,3.174
0.486,0.266,-0.932,19.104,0.671,3.418
0.487,0.240,-0.904,18.250,-1.831,4.028
0.474,0.233,-0.877,14.343,-4.272,5.371
0.453,0.233,-0.862,8.484,-6.409,6.897
0.454,0.244,-0.849,3.113,-7.263,7.202
0.439,0.254,-0.880,0.366,-7.324,7.202
0.465,0.266,-0.871,1.038,-7.446,6.714
0.463,0.263,-0.878,3.540,-9.399,6.287
0.458,0.261,-0.871,6.958,-10.986,6.165
0.460,0.269,-0.849,10.254,-10.803,6.104
0.470,0.272,-0.832,12.634,-10.681,5.371
0.487,0.262,-0.802,13.245,-10.132,4.272
0.495,0.250,-0.781,11.963,-8.240,4.150
0.499,0.259,-0.773,9.277,-5.249,4.639
0.496,0.259,-0.784,6.287,-3.418,4.028
0.472,0.236,-0.780,3.662,-3.113,2.380
0.447,0.241,-0.799,0.793,-2.441,2.136
0.460,0.283,-0.838,-0.549,-2.136,3.296
0.462,0.312,-0.880,0.977,-2.563,3.052
0.464,0.324,-0.894,5.005,-3.418,2.197
0.470,0.315,-0.902,9.827,-4.578,1.526
0.476,0.296,-0.896,14.282,-4.944,1.587
0.485,0.298,-0.886,17.151,-5.188,1.892
0.484,0.286,-0.887,17.761,-6.653,1.465
0.496,0.263,-0.858,16.724,-7.446,0.977
0.481,0.276,-0.860,12.817,-6.653,2.380
0.521,0.326,-0.940,11.047,-4.944,4.089
0.468,0.280,-0.855,18.921,2.197,7.751
0.460,0.323,-0.831,23.560,1.648,5.737
0.448,0.263,-0.828,26.001,3.235,4.150
0.451,0.333,-0.871,22.766,2.441,4.028
0.453,0.295,-0.838,22.095,-0.610,4.150
0.443,0.294,-0.833,17.944,-1.831,3.357
0.461,0.312,-0.842,10.742,-5.005,2.747
0.470,0.335,-0.848,4.883,-8.362,2.686
0.463,0.353,-0.854,2.319,-11.047,2.319
0.458,0.344,-0.852,3.967,-11.658,1.038
0.454,0.330,-0.816,6.104,-10.620,0.183
1.250,0.023,1.307,-44.739,89.172,5.615
1.347,-0.033,1.340,-44.678,113.647,12.146
1.381,-0.062,1.366,-47.302,126.221,14.404
1.357,-0.010,1.358,-59.387,134.521,19.836
1.377,-0.044,1.339,-79.285,140.259,24.353
1.359,-0.167,1.282,-102.722,139.099,25.635
1.313,-0.258,1.208,-126.587,133.179,23.376
1.250,-0.244,1.153,-150.574,126.038,22.949
1.161,-0.136,1.037,-175.354,128.723,25.146
1.106,-0.083,0.849,-186.707,136.902,29.480
1.003,-0.132,0.727,-185.974,144.104,35.522
0.900,-0.193,0.594,-183.777,152.527,41.870
0.791,-0.270,0.481,-177.124,165.344,53.894
0.569,-0.391,0.353,-171.448,179.443,65.186
0.436,-0.427,0.195,-166.626,191.162,68.787
0.255,-0.324,0.011,-162.842,203.308,65.063
0.050,-0.266,-0.291,-158.569,217.529,60.974
-0.082,-0.209,-0.612,-145.813,226.929,60.120
-0.053,-0.156,-0.893,-120.178,227.966,59.692
0.047,-0.239,-1.270,-87.280,204.102,62.561
0.055,-0.290,-1.600,-67.505,163.391,64.819
0.055,-0.261,-1.763,-64.148,130.005,67.017
-0.261,-0.035,-1.701,-76.965,101.257,72.449
-0.567,0.210,-1.678,-86.060,82.764,75.562
-1.383,0.853,-2.072,-79.224,93.628,68.054
-0.345,0.455,-1.956,-64.148,173.767,58.167
-0.899,0.858,-2.297,-32.349,207.764,-9.216
-0.630,0.891,-2.433,-8.240,252.808,-39.063
-0.145,0.830,-2.032,14.526,287.598,-48.462
-0.235,0.679,-1.874,29.297,235.657,-38.269
-0.274,0.589,-1.853,38.391,171.692,-38.208
-0.258,0.528,-1.728,36.621,132.202,-43.518
-0.248,0.535,-1.530,29.297,110.718,-43.213
-0.242,0.570,-1.388,23.437,94.238,-50.720
-0.314,0.527,-1.345,17.517,77.820,-65.308
-0.155,0.424,-1.393,7.812,66.650,-83.984
0.074,0.265,-1.343,3.967,61.035,-101.501
0.284,0.031,-1.336,13.672,51.697,-109.131
0.531,-0.251,-1.342,31.311,45.166,-109.924
0.769,-0.437,-1.318,49.927,43.640,-101.257
1.012,-0.495,-1.342,70.313,37.720,-75.928
1.098,-0.368,-1.273,85.999,20.569,-39.001
0.977,-0.124,-1.106,85.815,-10.681,-3.967
0.752,0.138,-0.906,69.763,-46.814,18.738
0.474,0.429,-0.716,41.992,-75.806,25.635
0.325,0.698,-0.523,15.564,-86.975,18.250
0.298,0.849,-0.430,4.333,-79.834,3.540
0.324,0.839,-0.414,10.437,-55.359,-11.841
0.366,0.677,-0.480,26.489,-21.423,-24.536
0.435,0.461,-0.577,42.236,10.681,-31.372
0.516,0.207,-0.696,51.941,32.593,-33.569
0.602,-0.012,-0.832,53.162,40.955,-29.480
0.646,-0.138,-0.953,46.875,38.330,-19.592
0.655,-0.167,-1.001,35.522,27.588,-6.836
0.617,-0.084,-0.981,23.071,13.611,5.005
0.565,0.097,-0.928,11.658,1.160,14.709
0.499,0.278,-0.864,3.418,-7.996,19.836
0.452,0.439,-0.826,-1.526,-14.526,20.813
0.439,0.537,-0.826,-3.479,-18.127,17.151
0.454,0.570,-0.819,-3.235,-20.325,9.033
0.471,0.527,-0.803,-0.732,-20.691,0.183
0.485,0.438,-0.794,3.784,-18.433,-5.127
0.502,0.357,-0.793,6.653,-14.648,-7.446
0.506,0.287,-0.788,6.531,-10.376,-7.629
0.519,0.232,-0.789,4.944,-5.493,-6.287
0.534,0.196,-0.791,1.709,-1.282,-3.113
0.536,0.212,-0.786,-2.625,2.808,1.465
0.527,0.263,-0.782,-6.287,5.981,6.348
0.508,0.340,-0.789,-8.545,7.874,8.362
0.495,0.410,-0.822,-7.507,8.118,6.897
0.488,0.437,-0.851,-3.906,5.859,2.686
0.485,0.429,-0.850,1.343,1.282,-2.136
0.482,0.384,-0.829,7.812,-2.258,-5.371
0.493,0.323,-0.813,13.733,-3.662,-5.981
0.510,0.271,-0.801,16.296,-3.906,-5.310
0.527,0.233,-0.788,14.893,-3.723,-4.456
0.537,0.220,-0.770,10.742,-3.296,-3.296
0.542,0.225,-0.750,5.371,-2.258,-1.770
0.540,0.248,-0.738,0.061,0.061,0.549
0.529,0.269,-0.731,-3.357,3.601,3.906
0.509,0.328,-0.736,-5.188,7.446,6.287
0.498,0.374,-0.785,-4.578,10.681,5.798
0.487,0.390,-0.828,-1.587,11.597,2.930
0.481,0.389,-0.842,2.380,10.498,-0.244
0.486,0.373,-0.849,7.080,10.010,-2.258
0.501,0.348,-0.867,11.475,10.193,-3.235
0.521,0.319,-0.885,12.634,8.789,-4.089
0.566,0.270,-0.895,11.047,5.127,-4.761
0.567,0.242,-0.875,7.263,1.465,-3.784
0.549,0.239,-0.845,2.869,-1.465,-1.648
0.531,0.250,-0.806,-0.488,-3.113,1.099
0.508,0.287,-0.778,-2.686,-3.357,3.601
0.491,0.324,-0.769,-2.869,-2.197,4.822
0.485,0.355,-0.768,-1.160,-0.488,4.395
0.485,0.379,-0.777,1.038,2.441,2.869
0.498,0.381,-0.788,3.784,4.883,0.916
0.512,0.362,-0.803,6.226,6.226,-0.671
0.525,0.342,-0.820,7.080,6.409,-1.709
0.533,0.325,-0.829,5.798,5.432,-2.075
0.536,0.312,-0.829,3.601,3.113,-2.258
0.529,0.300,-0.819,2.014,0.671,-2.014
0.520,0.288,-0.810,0.610,-1.221,-1.404
0.511,0.281,-0.801,-0.671,-2.136,-0.122
0.505,0.286,-0.793,-1.709,-2.014,1.648
0.501,0.304,-0.789,-2.075,-1.160,3.235
0.505,0.325,-0.794,-1.648,-0.061,4.028
0.513,0.347,-0.808,-0.671,0.854,3.418
0.523,0.360,-0.823,0.000,0.732,1.953
0.525,0.360,-0.824,-0.183,-0.549,0.122
0.524,0.360,-0.826,-0.244,-1.831,-1.282
0.523,0.347,-0.832,-0.122,-2.502,-2.197
0.521,0.328,-0.836,-0.305,-3.601,-2.625
0.521,0.312,-0.835,-1.404,-4.944,-2.625
0.519,0.295,-0.832,-2.380,-6.226,-2.319
0.518,0.284,-0.820,-3.113,-7.446,-1.953
0.516,0.286,-0.808,-3.479,-7.446,-1.099
0.516,0.295,-0.800,-2.869,-6.409,0.366
0.518,0.301,-0.798,-1.770,-4.944,1.526
0.525,0.308,-0.801,-1.160,-3.906,2.319
1.469,-0.384,0.982,-107.056,46.631,32.532
1.518,-0.361,1.003,-125.610,57.556,40.222
1.535,-0.303,1.025,-137.939,68.970,49.133
1.532,-0.261,1.024,-143.921,78.186,57.983
1.442,-0.227,0.996,-145.935,87.830,67.444
1.347,-0.225,0.945,-146.057,99.731,76.538
1.230,-0.248,0.859,-146.851,106.812,83.740
1.089,-0.239,0.765,-151.062,108.887,86.243
0.983,-0.269,0.649,-157.532,115.112,84.351
0.846,-0.354,0.528,-167.236,119.812,80.139
0.702,-0.418,0.413,-181.702,123.108,76.477
0.544,-0.551,0.254,-196.960,124.146,75.500
0.276,-0.537,-0.022,-211.182,122.375,81.970
-0.127,-0.394,-0.401,-221.558,122.681,88.074
-0.508,-0.212,-0.839,-225.586,136.169,83.984
-0.613,-0.012,-1.416,-216.187,164.001,70.679
-0.536,0.170,-1.852,-188.538,198.059,55.786
-0.245,0.255,-2.057,-151.489,218.628,44.678
-0.084,0.283,-2.187,-113.647,213.928,40.283
-0.408,0.402,-2.073,-88.623,191.406,43.701
-0.115,0.233,-2.119,-66.772,182.312,59.814
-0.505,0.505,-2.136,-45.715,182.129,31.982
-0.376,0.633,-2.088,-33.997,142.883,-2.319
-0.376,0.555,-2.125,-13.306,119.812,-9.460
-0.146,0.473,-2.037,7.385,107.666,-15.076
-0.177,0.451,-1.948,18.982,85.815,-20.447
-0.195,0.425,-1.804,22.217,71.228,-24.597
-0.046,0.402,-1.576,21.484,68.604,-31.372
0.019,0.287,-1.425,18.555,65.430,-43.579
0.096,0.154,-1.373,11.353,57.434,-56.396
0.315,-0.065,-1.304,2.747,53.101,-67.261
0.487,-0.283,-1.282,-3.113,40.955,-77.271
0.660,-0.428,-1.214,-3.723,28.015,-77.759
0.855,-0.431,-1.195,1.160,17.456,-59.998
0.970,-0.192,-1.171,4.028,3.052,-28.259
0.868,0.155,-1.024,1.099,-22.522,3.357
0.729,0.398,-0.845,-3.052,-52.002,19.287
0.570,0.545,-0.666,-9.155,-72.266,18.066
0.461,0.635,-0.529,-12.695,-73.975,10.315
0.422,0.659,-0.463,-6.775,-57.800,3.601
0.446,0.604,-0.482,6.775,-31.128,-1.404
0.499,0.478,-0.557,21.118,-3.906,-7.446
0.583,0.304,-0.671,30.945,17.029,-14.038
0.676,0.105,-0.755,34.119,28.625,-18.799
0.734,-0.077,-0.821,32.349,32.104,-19.775
0.783,-0.203,-0.871,28.198,30.457,-15.930
0.799,-0.239,-0.913,23.682,26.489,-7.141
0.777,-0.183,-0.928,20.386,20.325,3.967
0.716,-0.059,-0.915,18.250,12.329,15.320
0.631,0.083,-0.871,16.174,3.906,24.353
0.535,0.207,-0.825,12.451,-2.319,29.785
0.484,0.314,-0.799,6.897,-6.348,31.921
0.460,0.383,-0.782,0.793,-9.460,29.053
0.464,0.394,-0.768,-3.174,-10.925,22.827
0.494,0.386,-0.762,-5.432,-10.010,16.846
0.522,0.357,-0.755,-5.676,-7.324,12.024
0.543,0.319,-0.751,-3.418,-3.601,9.033
0.561,0.270,-0.759,0.000,0.000,7.568
0.573,0.233,-0.767,2.808,3.296,7.690
0.576,0.209,-0.769,3.357,5.188,8.301
0.566,0.201,-0.771,1.953,6.104,9.521
0.552,0.211,-0.766,-0.549,6.287,10.986
0.537,0.243,-0.770,-3.052,6.226,11.902
0.529,0.277,-0.783,-4.700,5.981,11.047
0.528,0.299,-0.797,-6.409,5.188,8.301
0.532,0.307,-0.801,-8.301,3.845,4.822
0.533,0.301,-0.801,-9.460,2.869,1.831
0.541,0.284,-0.810,-8.911,2.625,-0.366
0.553,0.262,-0.826,-7.080,2.380,-1.770
0.570,0.236,-0.840,-5.066,1.770,-2.380
0.585,0.215,-0.847,-3.540,0.549,-2.441
0.590,0.195,-0.842,-2.686,-1.160,-2.625
0.586,0.175,-0.832,-2.625,-2.441,-2.441
0.582,0.158,-0.819,-2.808,-2.869,-1.648
0.581,0.155,-0.813,-3.113,-2.380,0.305
0.583,0.167,-0.811,-3.845,-1.221,2.441
0.586,0.190,-0.811,-4.639,-0.305,3.601
0.585,0.221,-0.819,-4.944,0.671,3.479
0.586,0.237,-0.830,-4.395,1.099,2.441
0.585,0.241,-0.833,-3.540,0.793,1.221
0.583,0.246,-0.833,-2.441,0.549,0.732
0.582,0.244,-0.846,-0.610,0.427,0.244
0.585,0.230,-0.856,0.732,-0.549,-0.732
0.587,0.220,-0.850,1.526,-2.197,-1.465
0.590,0.216,-0.836,2.502,-3.906,-1.831
0.591,0.218,-0.822,3.052,-4.517,-1.465
0.594,0.216,-0.809,3.418,-4.333,-1.282
0.597,0.209,-0.797,3.357,-4.028,-1.282
0.595,0.207,-0.783,3.052,-3.601,-0.793
0.591,0.213,-0.776,2.319,-2.930,-0.244
0.583,0.211,-0.771,1.709,-2.441,0.549
0.583,0.211,-0.766,1.587,-2.014,1.038
0.585,0.216,-0.760,1.038,-1.343,1.648
0.580,0.224,-0.754,0.366,-0.366,2.075
0.578,0.228,-0.759,0.122,0.916,2.197
0.578,0.224,-0.774,0.488,1.770,1.709
0.578,0.223,-0.779,0.244,1.648,1.526
0.579,0.219,-0.786,0.366,1.587,1.526
0.583,0.214,-0.795,0.488,1.282,1.465
0.590,0.221,-0.806,-0.305,0.671,1.404
0.597,0.217,-0.817,-0.916,-0.244,0.854
0.594,0.206,-0.816,-1.404,-1.465,0.122
0.589,0.195,-0.806,-2.014,-2.380,0.244
0.583,0.195,-0.800,-1.953,-2.441,0.916
0.578,0.196,-0.794,-1.831,-2.014,1.221
0.577,0.205,-0.789,-2.197,-1.282,1.709
0.583,0.225,-0.793,-2.563,0.061,1.648
0.588,0.232,-0.800,-2.991,1.465,0.977
0.590,0.234,-0.805,-2.869,2.136,0.305
0.588,0.234,-0.808,-2.441,2.502,0.061
0.590,0.234,-0.811,-1.770,2.441,0.061
0.595,0.227,-0.818,-1.282,2.197,0.061
0.596,0.221,-0.826,-0.793,1.404,-0.122
0.595,0.223,-0.827,-0.610,-0.122,-0.183
0.586,0.229,-0.822,0.183,-1.526,-0.244
0.584,0.235,-0.823,1.587,-2.075,-0.122
0.579,0.236,-0.820,2.747,-2.747,-0.549
0.583,0.228,-0.812,3.906,-3.540,-1.221
0.593,0.214,-0.798,4.089,-4.211,-1.648
1.876,-0.386,1.117,-55.786,22.339,15.869
1.929,-0.502,1.284,-93.750,1.343,24.170
1.841,-0.525,1.399,-137.207,-17.700,36.560
1.723,-0.485,1.564,-179.565,-21.851,51.392
1.570,-0.413,1.627,-207.703,0.549,67.566
1.482,-0.357,1.545,-218.140,31.982,78.491
1.343,-0.331,1.377,-219.116,56.213,82.153
1.226,-0.378,1.177,-220.581,80.994,82.214
1.067,-0.429,1.003,-228.882,100.159,82.031
0.848,-0.479,0.823,-242.310,116.028,84.473
0.662,-0.560,0.637,-256.104,130.737,88.989
0.438,-0.655,0.369,-268.188,142.029,94.788
0.102,-0.683,-0.022,-276.978,154.236,105.591
-0.255,-0.602,-0.496,-283.264,170.288,114.624
-0.523,-0.536,-1.029,-283.447,189.880,111.267
-0.680,-0.443,-1.636,-273.560,210.022,102.478
-0.648,-0.313,-2.145,-252.869,222.107,97.778
-0.496,-0.095,-2.455,-223.877,212.219,95.276
-0.420,0.101,-2.585,-189.331,176.941,93.323
-0.337,0.201,-2.398,-156.067,137.390,90.576
-0.417,0.149,-2.386,-129.456,88.989,85.449
-1.348,0.540,-2.641,-120.544,49.866,79.651
-0.398,0.208,-2.109,-101.318,82.642,58.228
-0.525,0.341,-2.045,-78.003,64.026,11.108
-0.558,0.286,-2.111,-44.312,52.917,11.841
-0.641,0.265,-2.151,-24.353,73.486,12.390
-0.386,0.549,-1.964,-15.076,106.567,-8.362
-0.430,0.535,-2.007,5.981,107.117,-23.865
-0.256,0.493,-1.896,24.475,104.248,-50.781
-0.084,0.312,-1.775,30.640,89.600,-73.608
0.288,-0.027,-1.583,33.691,68.542,-96.313
0.729,-0.436,-1.340,37.231,37.781,-128.418
0.858,-0.953,-1.158,48.035,7.080,-140.259
0.910,-1.151,-1.090,60.608,-4.517,-100.098
1.008,-0.576,-1.015,51.392,-0.061,-14.160
0.910,0.049,-0.954,24.048,-13.062,59.143
0.596,0.446,-0.911,-6.836,-58.044,83.008
0.372,0.763,-0.770,-42.908,-100.769,70.251
0.196,1.008,-0.626,-68.115,-122.009,45.166
0.165,1.115,-0.517,-67.566,-118.103,18.677
0.208,1.090,-0.438,-42.603,-92.773,-4.517
0.326,0.889,-0.421,-2.563,-54.382,-23.254
0.464,0.611,-0.469,37.354,-14.526,-36.865
0.618,0.291,-0.525,65.247,16.846,-46.082
0.740,-0.057,-0.586,78.735,38.025,-51.514
0.862,-0.326,-0.665,80.200,51.697,-47.668
0.903,-0.436,-0.740,71.716,60.181,-36.194
0.836,-0.428,-0.837,58.472,63.049,-18.982
0.822,-0.272,-0.906,42.847,56.885,4.395
0.746,-0.057,-0.938,28.870,45.471,21.057
0.646,0.134,-0.936,17.456,31.006,29.114
0.559,0.294,-0.921,6.653,16.052,30.518
0.511,0.401,-0.898,-2.441,3.052,27.039
0.491,0.445,-0.877,-7.874,-4.822,20.996
0.497,0.440,-0.867,-9.888,-9.827,15.259
0.519,0.415,-0.857,-8.118,-12.878,11.353
0.539,0.370,-0.853,-3.296,-15.015,8.606
0.547,0.319,-0.830,2.441,-16.113,7.935
0.549,0.289,-0.799,6.531,-15.503,8.850
0.548,0.279,-0.782,8.179,-13.062,10.498
0.546,0.290,-0.775,7.690,-9.766,11.780
0.546,0.318,-0.780,5.737,-6.714,12.146
0.541,0.346,-0.787,4.272,-4.578,11.230
0.535,0.365,-0.794,3.235,-2.808,9.033
0.538,0.360,-0.797,3.052,-1.953,6.348
0.547,0.339,-0.813,3.479,-1.831,3.540
0.551,0.316,-0.810,4.150,-2.563,1.343
0.558,0.288,-0.804,5.249,-3.845,-0.305
0.554,0.275,-0.790,6.531,-5.615,-0.854
0.552,0.254,-0.781,7.507,-6.348,-0.488
0.554,0.246,-0.777,7.568,-7.141,0.366
0.553,0.243,-0.770,6.409,-7.751,0.977
0.552,0.245,-0.750,4.761,-8.118,1.465
0.559,0.247,-0.747,2.625,-7.324,1.831
0.563,0.251,-0.737,0.366,-5.981,1.770
0.567,0.251,-0.736,-1.038,-4.211,1.587
0.575,0.253,-0.739,-1.587,-2.136,1.526
0.578,0.259,-0.747,-1.709,0.061,1.587
0.577,0.258,-0.753,-1.465,2.380,1.282
0.577,0.261,-0.771,-0.793,4.883,1.587
0.579,0.266,-0.792,-0.244,6.409,1.770
0.582,0.272,-0.810,0.061,6.836,2.075
0.584,0.275,-0.824,0.488,6.165,1.892
0.586,0.275,-0.824,0.854,4.517,1.770
0.583,0.268,-0.816,0.488,2.380,1.648
0.578,0.266,-0.810,-0.061,1.160,2.136
0.572,0.271,-0.801,-0.671,0.427,2.625
0.566,0.279,-0.794,-0.916,0.122,2.625
0.566,0.285,-0.791,-0.916,0.305,2.502
0.568,0.300,-0.792,-0.427,0.488,2.014
0.569,0.303,-0.786,0.183,0.366,0.854
0.568,0.301,-0.780,0.488,0.610,0.061
0.568,0.292,-0.780,1.221,0.977,-0.916
0.573,0.279,-0.783,2.014,1.587,-1.526
0.575,0.269,-0.785,2.563,1.953,-1.343
0.575,0.260,-0.788,2.380,2.258,-1.343
0.579,0.254,-0.796,1.892,2.380,-0.977
0.583,0.259,-0.802,1.282,2.625,-0.366
0.583,0.265,-0.804,0.610,2.441,0.244
0.585,0.269,-0.806,0.610,2.136,0.610
0.591,0.271,-0.808,0.977,1.404,0.854
0.596,0.272,-0.803,1.099,0.549,0.732
0.595,0.267,-0.794,1.099,-0.488,0.671
0.593,0.266,-0.783,0.916,-1.465,0.854
0.586,0.267,-0.770,0.671,-2.014,0.916
0.577,0.268,-0.761,0.427,-1.709,0.916
0.574,0.269,-0.758,0.183,-0.427,1.160
0.577,0.275,-0.767,0.305,1.465,1.160
0.580,0.280,-0.774,0.000,2.991,1.404
0.582,0.278,-0.780,-0.244,3.784,1.404
0.585,0.275,-0.785,-0.305,4.089,1.282
0.588,0.269,-0.793,-0.488,4.272,1.526
0.589,0.263,-0.792,-0.549,3.845,1.953
0.587,0.263,-0.790,-0.366,2.808,2.319
0.581,0.266,-0.793,-0.549,1.892,2.563
0.574,0.273,-0.793,-0.122,1.160,2.686
0.566,0.275,-0.789,0.549,0.488,2.319
0.564,0.277,-0.788,0.793,0.549,2.075
0.570,0.280,-0.790,0.854,1.282,1.709
1.572,-0.259,1.220,-72.815,43.457,-4.272
1.631,-0.315,1.324,-97.473,42.725,3.540
1.671,-0.301,1.413,-122.681,41.382,15.137
1.674,-0.305,1.516,-144.165,37.964,27.588
1.604,-0.337,1.632,-164.917,37.231,38.940
1.486,-0.316,1.648,-188.477,39.490,48.462
1.366,-0.307,1.601,-209.900,48.157,53.406
1.239,-0.322,1.472,-225.281,61.035,56.274
1.089,-0.351,1.288,-238.220,78.247,60.059
0.923,-0.441,1.079,-247.437,97.595,65.613
0.761,-0.474,0.844,-255.005,119.080,74.890
0.647,-0.505,0.597,-260.620,140.442,84.717
0.469,-0.518,0.361,-261.597,156.616,92.346
0.304,-0.606,0.088,-258.179,170.349,97.168
-0.051,-0.588,-0.299,-256.042,185.669,101.990
-0.423,-0.500,-0.843,-252.136,208.130,105.286
-0.691,-0.374,-1.487,-234.131,244.019,105.896
-0.771,-0.171,-2.184,-195.923,280.518,107.788
-0.606,0.089,-2.750,-147.461,300.476,110.718
-0.317,0.326,-2.905,-107.788,286.133,114.197
0.035,0.313,-2.621,-82.581,229.431,113.403
-1.982,0.489,-2.614,-79.773,119.690,110.352
0.280,0.397,-1.446,-81.848,134.827,84.656
-0.915,0.444,-1.832,-85.693,79.102,53.711
-0.689,0.470,-1.902,-66.162,60.364,59.937
-0.818,0.584,-1.985,-51.270,90.271,43.274
-0.665,0.757,-2.008,-31.372,121.521,23.376
-0.513,0.788,-2.053,-0.854,139.099,0.061
-0.331,0.559,-2.083,27.893,135.376,-25.757
-0.002,0.198,-1.992,41.199,126.160,-63.477
0.339,-0.216,-1.850,39.917,106.750,-98.999
0.659,-0.506,-1.691,32.898,77.881,-104.919
0.812,-0.439,-1.571,31.860,37.415,-67.810
0.755,-0.050,-1.301,30.090,-17.090,-7.141
0.568,0.352,-0.972,20.020,-78.491,36.011
0.386,0.619,-0.629,1.465,-124.756,44.250
0.236,0.772,-0.338,-17.639,-142.273,32.715
0.127,0.869,-0.146,-26.855,-129.150,18.921
0.121,0.903,-0.087,-20.935,-91.064,6.348
0.193,0.863,-0.143,-3.357,-39.795,-6.714
0.337,0.741,-0.287,18.555,9.460,-20.081
0.506,0.582,-0.444,35.645,45.166,-31.738
0.672,0.349,-0.590,42.297,64.270,-42.725
0.776,0.110,-0.726,40.344,70.007,-47.974
0.834,-0.055,-0.829,33.081,68.359,-44.006
0.864,-0.148,-0.906,26.367,61.707,-32.532
0.824,-0.135,-0.957,23.437,50.598,-14.587
0.731,-0.025,-0.977,22.766,37.292,5.615
0.618,0.151,-0.966,21.423,24.109,21.729
0.500,0.347,-0.940,18.311,12.695,30.090
0.407,0.516,-0.911,12.817,2.869,30.518
0.353,0.629,-0.873,5.554,-4.883,23.132
0.358,0.672,-0.844,-0.916,-10.681,11.963
0.386,0.658,-0.824,-4.028,-13.306,1.465
0.413,0.570,-0.800,-3.418,-13.672,-6.897
0.453,0.475,-0.770,-0.916,-11.169,-11.169
0.500,0.400,-0.747,1.709,-6.165,-10.559
0.550,0.357,-0.742,3.479,-1.404,-7.385
0.576,0.342,-0.749,4.150,2.258,-3.235
0.569,0.341,-0.746,3.601,5.127,0.793
0.539,0.361,-0.746,2.197,7.263,4.700
0.511,0.399,-0.752,0.488,10.132,7.141
0.484,0.442,-0.766,-0.854,13.184,6.714
0.451,0.467,-0.788,-0.549,15.625,3.662
0.440,0.470,-0.799,1.465,17.578,-0.793
0.444,0.443,-0.803,4.517,18.433,-4.456
0.458,0.409,-0.815,6.409,18.494,-7.019
0.483,0.381,-0.833,6.409,17.151,-7.935
0.513,0.346,-0.849,5.188,13.550,-7.751
0.529,0.323,-0.853,4.272,8.118,-5.920
0.540,0.314,-0.845,3.479,2.380,-2.625
0.542,0.324,-0.824,2.808,-1.709,0.488
0.534,0.349,-0.802,2.441,-3.967,2.625
0.523,0.377,-0.772,2.258,-4.578,3.357
0.510,0.394,-0.742,2.136,-3.052,3.296
0.498,0.400,-0.727,2.625,0.366,2.808
0.481,0.408,-0.731,3.601,5.493,1.770
0.465,0.419,-0.754,4.944,11.169,0.854
0.451,0.422,-0.781,6.531,15.686,-0.793
0.440,0.417,-0.805,8.240,18.677,-2.136
0.467,0.408,-0.815,9.460,21.301,-3.174
0.465,0.414,-0.839,10.254,21.118,-4.333
0.473,0.408,-0.843,9.949,17.029,-4.456
0.487,0.399,-0.829,9.399,13.916,-4.517
0.487,0.387,-0.814,8.789,10.742,-4.395
0.487,0.385,-0.798,8.179,8.911,-3.479
0.491,0.390,-0.782,7.080,8.728,-2.563
0.486,0.399,-0.782,5.981,9.277,-2.380
0.479,0.405,-0.781,5.249,9.949,-2.502
0.474,0.411,-0.788,4.333,10.559,-2.869
0.479,0.415,-0.806,4.272,10.681,-3.357
0.480,0.414,-0.825,4.944,9.888,-3.357
0.481,0.414,-0.827,5.249,7.812,-3.113
0.480,0.402,-0.829,5.859,5.127,-2.625
0.485,0.399,-0.823,5.920,2.563,-2.258
0.484,0.398,-0.808,5.188,1.099,-1.465
0.483,0.395,-0.788,3.967,0.183,-0.793
0.482,0.392,-0.774,2.258,0.061,-0.122
0.476,0.399,-0.764,0.183,0.427,0.061
0.472,0.405,-0.757,-1.282,1.892,-0.244
0.470,0.406,-0.761,-1.343,4.028,-0.916
0.465,0.401,-0.775,-0.244,6.592,-1.526
0.488,0.397,-0.788,1.709,9.216,-1.648
0.482,0.386,-0.804,3.052,9.216,-0.854
0.486,0.383,-0.814,4.028,9.460,0.183
0.490,0.384,-0.821,3.906,9.338,1.160
0.484,0.391,-0.831,3.296,8.057,2.075
0.481,0.400,-0.832,2.625,6.531,2.197
0.472,0.406,-0.821,2.075,4.822,1.953
0.459,0.410,-0.813,2.502,3.845,2.075
0.436,0.411,-0.809,2.747,3.601,1.953
0.446,0.411,-0.794,2.869,4.578,1.648
0.438,0.409,-0.800,2.808,4.395,0.854
0.439,0.406,-0.798,2.563,4.333,0.305
0.453,0.404,-0.789,2.686,5.432,0.183
0.460,0.402,-0.797,2.991,6.470,0.305
0.473,0.394,-0.803,2.869,7.324,-0.122
0.478,0.388,-0.807,2.014,8.118,0.061
0.482,0.381,-0.814,1.160,8.362,0.305
1.641,-0.280,0.893,-54.443,31.555,31.250
1.692,-0.333,1.024,-66.711,35.461,37.354
1.682,-0.402,1.122,-84.595,38.330,45.532
1.634,-0.401,1.169,-106.506,41.809,56.091
1.548,-0.372,1.149,-129.456,47.852,68.542
1.467,-0.345,1.102,-151.245,55.786,78.369
1.334,-0.314,1.003,-170.349,64.148,85.083
1.250,-0.252,0.906,-185.425,73.242,88.135
1.187,-0.244,0.818,-194.214,83.740,88.135
1.137,-0.211,0.719,-197.571,94.482,85.693
1.107,-0.247,0.649,-197.205,105.042,84.595
1.097,-0.275,0.582,-196.960,114.807,89.478
0.997,-0.316,0.514,-199.158,121.765,100.464
0.833,-0.355,0.438,-203.796,127.869,111.511
0.600,-0.390,0.260,-208.679,133.850,121.277
0.329,-0.405,0.002,-214.966,140.503,125.671
0.084,-0.409,-0.245,-220.825,151.672,122.131
-0.042,-0.432,-0.509,-220.154,164.001,111.084
-0.128,-0.463,-0.736,-213.135,166.931,101.685
-0.328,-0.454,-0.961,-196.838,161.011,99.976
-0.696,-0.299,-1.313,-176.697,152.893,101.563
-1.005,-0.049,-1.735,-156.616,153.870,98.999
-1.124,0.261,-2.154,-132.446,170.898,90.881
-1.684,0.509,-2.399,-102.417,197.571,78.735
-0.657,0.309,-2.274,-47.546,302.124,69.031
-0.753,0.708,-2.379,3.662,335.449,14.038
-0.833,0.564,-2.412,29.724,249.756,14.343
-0.457,0.326,-2.118,43.762,219.421,2.502
-0.482,0.131,-2.091,43.152,161.377,-2.075
-0.367,0.048,-1.929,32.349,120.728,-3.845
-0.317,0.048,-1.777,18.616,90.332,-3.235
-0.356,0.027,-1.743,6.409,63.538,-6.348
-0.190,-0.042,-1.709,-2.930,56.030,-25.085
0.116,-0.093,-1.646,-6.042,63.354,-51.147
0.339,-0.096,-1.569,1.648,65.613,-62.561
0.523,0.060,-1.455,18.372,54.504,-54.626
0.625,0.302,-1.256,33.569,26.367,-33.691
0.597,0.462,-0.984,40.222,-11.353,-13.306
0.548,0.580,-0.761,36.133,-46.448,-1.465
0.447,0.600,-0.533,24.414,-68.420,0.549
0.359,0.598,-0.379,13.000,-72.266,-3.479
0.324,0.578,-0.305,6.531,-57.251,-9.216
0.359,0.541,-0.329,5.798,-27.222,-15.503
0.438,0.465,-0.429,8.789,5.615,-22.095
0.523,0.357,-0.552,13.611,32.959,-28.137
0.586,0.210,-0.684,18.372,50.598,-32.654
0.672,0.076,-0.792,21.790,60.852,-33.142
0.713,-0.022,-0.895,23.621,63.049,-28.198
0.709,-0.078,-0.965,24.963,58.594,-18.250
0.673,-0.087,-0.999,26.367,50.781,-5.737
0.616,-0.036,-1.018,26.917,41.321,6.287
0.568,0.092,-1.016,25.085,30.640,16.846
0.505,0.251,-0.987,20.447,17.944,22.217
0.432,0.391,-0.926,13.794,4.639,21.973
0.373,0.500,-0.881,6.836,-4.395,19.104
0.342,0.564,-0.847,1.770,-7.385,14.771
0.336,0.569,-0.833,0.061,-5.493,8.057
0.347,0.542,-0.833,0.488,-1.038,0.916
0.377,0.484,-0.846,3.479,6.042,-3.662
0.417,0.408,-0.867,8.179,13.000,-5.371
0.444,0.331,-0.887,12.817,17.700,-3.357
0.465,0.293,-0.898,14.954,19.653,0.977
0.474,0.298,-0.901,14.282,19.653,5.493
0.454,0.340,-0.912,12.146,16.907,8.118
0.432,0.377,-0.904,9.338,11.780,6.836
0.451,0.390,-0.894,6.165,4.883,2.625
0.423,0.413,-0.848,2.625,-3.235,-0.549
0.407,0.435,-0.817,-0.366,-8.301,-2.258
0.383,0.450,-0.784,-1.648,-10.010,-4.395
0.367,0.433,-0.763,-1.709,-8.911,-7.629
0.370,0.393,-0.752,-0.488,-4.639,-10.254
0.402,0.338,-0.752,1.099,1.526,-11.230
0.413,0.291,-0.782,1.648,6.592,-11.047
0.464,0.250,-0.805,1.343,11.475,-9.766
0.487,0.233,-0.833,0.427,13.367,-6.348
0.489,0.239,-0.855,-0.732,12.878,-2.747
0.487,0.268,-0.878,-1.831,12.085,-0.916
0.498,0.304,-0.896,-1.648,10.681,-1.404
0.487,0.317,-0.892,-0.854,7.996,-2.625
0.462,0.319,-0.881,1.221,6.104,-2.869
0.450,0.328,-0.870,4.211,5.920,-2.136
0.426,0.321,-0.865,7.019,6.348,-0.793
0.409,0.314,-0.860,8.667,7.263,0.671
0.409,0.314,-0.862,8.545,8.362,2.441
0.401,0.322,-0.875,6.470,8.240,3.479
0.402,0.332,-0.886,3.418,7.446,3.540
0.406,0.345,-0.904,0.427,6.409,2.991
0.424,0.371,-0.919,-1.770,4.700,1.770
0.438,0.394,-0.928,-2.441,1.221,-0.122
0.450,0.402,-0.922,-1.526,-2.747,-2.319
0.457,0.399,-0.901,0.549,-6.714,-4.517
0.456,0.381,-0.876,3.662,-9.277,-6.104
0.447,0.357,-0.852,6.958,-10.254,-6.531
0.433,0.340,-0.830,9.094,-9.155,-5.615
0.419,0.318,-0.802,10.132,-6.775,-3.967
0.407,0.314,-0.800,10.315,-4.211,-2.136
0.407,0.321,-0.813,9.216,-1.343,-0.488
0.414,0.331,-0.832,6.958,0.854,0.305
0.426,0.348,-0.852,4.700,0.916,-0.366
0.445,0.354,-0.859,2.380,-0.427,-1.831
0.459,0.355,-0.851,0.488,-1.953,-2.747
0.469,0.360,-0.839,-0.305,-2.441,-3.479
0.467,0.351,-0.829,-0.061,-2.686,-4.944
0.468,0.331,-0.833,1.038,-2.686,-5.859
0.458,0.304,-0.834,2.625,-2.380,-5.310
0.462,0.289,-0.837,4.089,-2.014,-3.113
0.459,0.297,-0.844,4.150,-2.014,-0.610
0.456,0.312,-0.853,3.601,-2.197,1.343
0.454,0.328,-0.851,3.418,-2.380,1.892
0.458,0.346,-0.844,3.357,-2.136,2.319
0.462,0.348,-0.836,3.845,-1.404,2.441
0.470,0.343,-0.820,4.089,-0.122,2.258
0.459,0.340,-0.818,4.272,0.305,1.587
0.444,0.336,-0.813,3.967,0.977,0.610
0.437,0.327,-0.810,3.784,2.808,0.183
0.427,0.322,-0.828,3.784,4.700,0.793
0.432,0.325,-0.853,3.174,5.615,1.221
0.437,0.326,-0.867,2.075,5.310,1.648
0.447,0.337,-0.877,0.793,4.028,2.502
1.664,-0.367,0.603,-44.006,104.309,43.762
1.698,-0.380,0.618,-67.993,91.614,54.810
1.681,-0.342,0.687,-95.947,74.219,64.026
1.624,-0.302,0.785,-122.437,54.932,68.115
1.550,-0.225,0.874,-140.381,43.335,66.284
1.480,-0.191,0.903,-147.644,42.236,60.181
1.430,-0.281,0.954,-144.653,53.223,56.519
1.360,-0.397,0.954,-139.587,70.557,61.462
1.286,-0.567,0.942,-139.404,89.783,75.378
1.193,-0.684,0.853,-146.790,109.985,98.022
1.045,-0.655,0.734,-168.152,124.146,121.887
0.845,-0.527,0.578,-191.467,135.437,138.367
0.650,-0.436,0.432,-206.787,146.240,142.761
0.415,-0.367,0.256,-215.942,156.067,138.367
0.132,-0.315,0.014,-217.041,167.847,131.104
0.017,-0.365,-0.230,-209.717,184.021,120.422
-0.144,-0.433,-0.503,-193.176,197.754,113.342
-0.342,-0.480,-0.794,-173.889,203.674,115.173
-0.667,-0.423,-1.145,-158.142,202.209,121.460
-1.076,-0.249,-1.620,-148.560,198.669,127.686
-1.290,0.043,-2.157,-137.085,201.965,126.221
-1.119,0.409,-2.680,-123.352,207.397,114.563
-0.775,0.708,-2.719,-119.568,207.031,93.140
0.057,0.099,-2.159,-102.844,209.351,77.881
-1.417,0.813,-2.453,-76.050,157.043,28.137
-0.692,0.559,-1.836,-69.580,137.085,24.963
-0.705,0.486,-1.652,-36.133,134.216,20.508
-0.814,0.472,-1.810,4.883,116.638,9.827
-0.792,0.400,-1.847,34.546,130.371,-2.502
-0.621,0.426,-1.833,47.424,144.531,-16.663
-0.488,0.433,-1.779,49.255,140.320,-32.166
-0.339,0.301,-1.744,42.297,118.530,-46.326
-0.277,0.100,-1.713,20.935,88.623,-61.279
-0.017,-0.042,-1.627,-6.348,62.622,-74.402
0.255,-0.144,-1.528,-25.208,35.583,-80.627
0.503,-0.165,-1.391,-31.433,9.033,-75.989
0.709,-0.085,-1.225,-26.489,-14.099,-60.059
0.861,0.032,-1.049,-12.878,-33.142,-39.063
0.877,0.153,-0.848,-1.953,-49.194,-21.729
0.794,0.233,-0.657,3.601,-58.105,-10.071
0.657,0.292,-0.513,5.859,-56.152,-3.052
0.542,0.354,-0.459,6.836,-42.175,0.000
0.475,0.391,-0.486,9.644,-21.240,-0.122
0.429,0.391,-0.556,13.550,-0.854,-2.014
0.399,0.351,-0.635,17.029,16.785,-4.211
0.382,0.286,-0.714,18.066,28.625,-8.118
0.403,0.199,-0.778,16.907,36.255,-11.719
0.410,0.136,-0.849,15.930,38.818,-11.230
0.443,0.094,-0.907,15.808,38.696,-7.080
0.476,0.086,-0.961,15.015,36.255,-1.831
0.495,0.119,-1.000,13.489,31.616,3.418
0.507,0.158,-1.019,11.536,24.536,6.897
0.508,0.214,-1.010,9.583,15.442,8.179
0.486,0.271,-0.982,8.911,5.554,9.216
0.441,0.318,-0.928,8.850,-3.052,9.766
0.383,0.355,-0.880,8.606,-9.399,9.705
0.346,0.386,-0.844,7.629,-11.902,9.155
0.319,0.385,-0.819,6.226,-10.315,8.057
0.314,0.381,-0.819,4.089,-6.348,7.568
0.322,0.379,-0.837,1.160,-2.014,6.409
0.346,0.369,-0.852,-2.014,2.014,4.639
0.375,0.354,-0.875,-4.089,4.883,1.892
0.410,0.338,-0.894,-5.127,6.226,-0.610
0.427,0.320,-0.902,-5.371,6.165,-2.014
0.439,0.303,-0.915,-4.150,5.005,-2.991
0.451,0.280,-0.914,-2.380,3.662,-4.089
0.456,0.262,-0.906,-0.916,1.831,-4.089
0.435,0.261,-0.896,-0.854,-0.854,-2.869
0.401,0.261,-0.888,-1.587,-2.319,-1.648
0.397,0.261,-0.880,-2.686,-2.197,-0.488
0.400,0.282,-0.891,-4.333,-1.953,0.916
0.409,0.294,-0.894,-7.019,-1.404,1.465
0.420,0.295,-0.892,-9.338,-0.916,0.916
0.434,0.300,-0.894,-10.925,-0.488,0.427
0.448,0.300,-0.890,-11.780,0.183,-0.488
0.457,0.293,-0.887,-11.597,1.160,-1.282
0.465,0.274,-0.892,-10.132,2.747,-1.892
0.459,0.258,-0.907,-7.507,4.150,-1.953
0.451,0.248,-0.924,-4.578,5.432,-1.709
0.442,0.240,-0.934,-1.404,6.042,-1.465
0.435,0.237,-0.942,1.343,5.859,-1.526
0.436,0.230,-0.941,3.418,5.188,-1.526
0.442,0.224,-0.936,4.517,3.418,-0.793
0.453,0.220,-0.932,4.150,1.465,0.854
0.455,0.230,-0.914,2.197,-1.770,1.892
0.453,0.233,-0.885,-0.549,-5.493,1.831
0.439,0.227,-0.851,-2.991,-8.789,1.221
0.420,0.227,-0.827,-4.211,-9.705,1.343
0.400,0.237,-0.820,-4.456,-8.606,1.587
0.393,0.253,-0.831,-3.906,-5.615,1.465
0.401,0.266,-0.853,-3.296,-2.869,0.244
0.419,0.273,-0.871,-2.808,-1.343,-1.343
0.433,0.267,-0.882,-2.625,-0.488,-2.808
0.445,0.258,-0.890,-2.380,-0.061,-3.723
0.462,0.252,-0.905,-1.587,-0.183,-4.272
0.469,0.249,-0.905,-0.488,-1.343,-3.540
0.464,0.240,-0.900,0.610,-2.441,-2.869
0.463,0.238,-0.894,1.099,-3.052,-2.441
0.463,0.240,-0.888,0.977,-3.174,-1.953
0.453,0.236,-0.889,0.061,-3.174,-1.038
0.446,0.241,-0.896,-1.465,-2.930,0.000
0.438,0.255,-0.901,-3.113,-3.296,0.793
0.438,0.262,-0.900,-4.089,-4.150,0.244
0.439,0.261,-0.893,-4.456,-5.127,-0.977
0.440,0.257,-0.879,-3.906,-5.249,-1.831
0.447,0.253,-0.870,-2.930,-4.211,-2.075
0.455,0.249,-0.867,-1.770,-2.930,-2.380
0.456,0.236,-0.867,-0.977,-1.953,-2.563
0.454,0.232,-0.871,-0.244,-0.916,-2.258
0.455,0.231,-0.880,-0.427,-0.061,-2.075
0.454,0.227,-0.891,-1.038,0.427,-2.319
0.462,0.228,-0.904,-1.221,0.244,-1.770
0.457,0.230,-0.909,-1.465,-1.038,-0.916
0.445,0.231,-0.900,-1.770,-2.808,-0.366
0.439,0.233,-0.888,-1.709,-4.333,-0.488
0.437,0.229,-0.874,-1.770,-5.127,-0.427
0.435,0.223,-0.856,-1.160,-5.371,0.183
0.443,0.226,-0.847,-0.305,-4.578,1.099
0.454,0.230,-0.838,-0.183,-3.723,1.709
0.526,-1.358,-0.042,-125.061,97.351,-156.128
0.597,-1.472,-0.162,-139.404,86.731,-144.287
0.549,-1.533,-0.141,-137.695,93.018,-131.042
0.613,-1.614,-0.235,-116.699,97.168,-125.000
0.700,-1.719,-0.327,-88.318,100.098,-114.807
0.771,-1.731,-0.325,-63.599,103.333,-98.877
0.802,-1.725,-0.351,-48.828,100.281,-77.576
0.793,-1.723,-0.360,-47.546,95.459,-55.237
0.762,-1.634,-0.361,-59.875,87.341,-39.246
0.705,-1.453,-0.392,-80.383,75.684,-28.870
0.703,-1.270,-0.373,-96.680,66.528,-22.644
0.737,-1.074,-0.290,-96.497,58.228,-24.902
0.791,-0.918,-0.221,-76.050,48.645,-33.386
0.789,-0.836,-0.141,-42.236,42.969,-42.542
0.685,-0.816,-0.106,-1.648,45.349,-48.218
0.577,-0.911,-0.194,41.809,58.838,-49.133
0.572,-1.031,-0.333,76.050,82.092,-45.349
0.631,-1.171,-0.518,89.539,103.394,-37.964
0.727,-1.242,-0.673,85.388,116.333,-26.062
0.821,-1.218,-0.781,68.970,116.333,-11.475
0.908,-1.122,-0.879,49.316,100.220,4.211
0.945,-0.915,-0.927,36.255,73.792,18.555
0.907,-0.701,-0.883,31.616,46.326,28.137
0.834,-0.581,-0.788,33.936,20.691,30.212
0.734,-0.508,-0.657,38.452,1.038,24.475
0.782,-0.527,-0.543,41.626,-10.254,14.832
0.822,-0.536,-0.465,41.687,-15.991,11.719
0.816,-0.607,-0.367,38.635,-20.996,13.000
0.815,-0.656,-0.279,32.898,-24.536,16.541
0.818,-0.593,-0.212,18.616,-29.175,19.714
0.808,-0.554,-0.139,-1.099,-34.546,23.499
0.802,-0.488,-0.070,-18.799,-38.574,26.184
0.791,-0.390,-0.040,-32.715,-41.077,26.611
0.771,-0.320,0.008,-37.781,-41.077,25.024
0.748,-0.249,0.047,-33.081,-37.476,20.569
0.731,-0.220,0.073,-20.630,-29.480,14.038
0.728,-0.252,0.081,-5.005,-17.761,6.470
0.745,-0.322,0.064,10.071,-4.456,-1.221
0.781,-0.404,0.033,20.447,6.592,-6.897
0.801,-0.472,-0.007,22.278,13.428,-11.047
0.810,-0.569,-0.053,15.686,17.090,-12.817
0.819,-0.650,-0.130,5.432,17.029,-13.489
0.860,-0.675,-0.198,-3.357,14.709,-10.254
0.891,-0.647,-0.224,-8.240,10.620,-2.747
0.884,-0.629,-0.193,-8.423,5.920,4.211
0.859,-0.601,-0.179,-5.432,0.610,7.446
0.829,-0.593,-0.169,-4.028,-2.319,7.690
0.811,-0.563,-0.161,-4.944,-3.113,5.920
0.814,-0.554,-0.154,-5.432,-2.808,4.517
0.821,-0.542,-0.152,-5.432,-1.770,2.808
0.837,-0.543,-0.150,-4.272,-1.160,0.549
0.850,-0.546,-0.137,-1.953,-1.099,-2.136
0.859,-0.563,-0.120,1.465,-1.343,-2.808
0.855,-0.591,-0.092,4.211,-1.160,-2.319
0.842,-0.614,-0.078,3.967,-0.793,-1.282
0.828,-0.618,-0.076,-0.549,0.305,0.366
0.825,-0.606,-0.088,-7.690,1.282,2.319
0.835,-0.578,-0.106,-14.709,1.892,4.150
0.836,-0.544,-0.109,-18.311,2.258,5.432
0.821,-0.519,-0.106,-17.395,2.197,5.615
0.808,-0.508,-0.107,-13.428,2.380,4.944
0.807,-0.510,-0.114,-8.606,2.991,3.479
0.808,-0.517,-0.117,-4.211,3.723,1.587
0.817,-0.527,-0.128,0.061,4.333,0.183
0.831,-0.541,-0.138,4.272,4.272,0.427
0.839,-0.557,-0.133,6.348,3.479,1.587
0.835,-0.570,-0.130,4.822,1.587,2.075
0.827,-0.583,-0.126,0.183,-0.549,1.770
0.822,-0.588,-0.132,-5.188,-2.136,1.648
0.818,-0.586,-0.131,-9.338,-2.686,1.465
0.820,-0.575,-0.127,-11.169,-2.808,1.587
0.831,-0.564,-0.122,-10.254,-2.197,2.380
0.835,-0.561,-0.106,-6.958,-0.977,2.319
0.835,-0.548,-0.104,-2.625,-0.549,1.404
0.835,-0.547,-0.098,2.075,0.427,1.221
0.829,-0.555,-0.092,5.371,1.465,0.732
0.824,-0.563,-0.098,6.653,1.648,0.122
0.824,-0.569,-0.106,5.981,1.587,-0.183
0.824,-0.575,-0.109,5.005,1.465,0.732
0.826,-0.574,-0.110,3.906,1.099,1.770
0.824,-0.560,-0.116,1.953,0.549,2.625
0.825,-0.541,-0.120,-1.099,-0.061,3.357
0.823,-0.525,-0.125,-3.479,-0.732,3.235
0.822,-0.516,-0.129,-3.906,-1.160,2.930
0.826,-0.511,-0.130,-2.808,-1.892,1.770
0.828,-0.515,-0.121,-1.282,-2.380,0.549
0.824,-0.525,-0.109,0.732,-2.747,-0.793
0.821,-0.538,-0.093,1.831,-3.174,-1.587
0.822,-0.552,-0.077,2.197,-3.174,-2.197
0.821,-0.564,-0.056,2.625,-2.563,-2.441
0.818,-0.576,-0.047,2.808,-1.404,-2.502
0.824,-0.590,-0.048,2.136,0.732,-2.747
0.836,-0.604,-0.062,0.977,2.747,-2.808
0.844,-0.606,-0.080,-0.427,4.028,-2.563
0.850,-0.604,-0.097,-1.465,4.883,-1.465
0.849,-0.599,-0.117,-1.526,5.310,0.488
0.852,-0.586,-0.123,-1.770,5.554,1.770
0.842,-0.571,-0.134,-2.319,4.272,1.831
0.828,-0.562,-0.141,-2.075,3.113,2.258
0.821,-0.554,-0.147,-1.038,2.625,2.319
0.828,-0.545,-0.143,0.305,2.563,2.075
0.828,-0.548,-0.135,1.587,1.587,1.648
0.818,-0.552,-0.133,2.625,-0.183,0.916
0.818,-0.556,-0.125,2.930,-1.038,0.793
0.820,-0.556,-0.113,1.953,-1.282,0.916
0.818,-0.554,-0.103,0.244,-1.770,1.038
0.810,-0.549,-0.096,-1.465,-2.136,1.038
0.810,-0.546,-0.096,-2.136,-1.831,1.221
0.812,-0.544,-0.094,-2.075,-1.404,0.916
0.813,-0.543,-0.092,-1.343,-1.038,0.122
0.814,-0.543,-0.091,0.061,-0.244,-0.366
0.819,-0.553,-0.092,1.831,0.244,-0.977
0.828,-0.564,-0.093,3.113,0.793,-1.465
0.835,-0.577,-0.093,2.869,1.404,-1.465
0.836,-0.585,-0.093,1.465,1.465,-1.221
0.831,-0.585,-0.099,-0.305,1.099,-0.793
0.831,-0.582,-0.110,-1.831,0.977,-0.427
0.831,-0.574,-0.117,-2.808,0.977,0.244
0.831,-0.566,-0.123,-2.930,1.160,0.854
0.498,1.050,1.208,-31.799,-63.416,-80.200
0.386,0.975,1.485,-28.503,-60.242,-112.305
0.283,0.911,1.758,-27.344,-42.175,-141.174
0.203,0.730,1.940,-29.419,-10.559,-164.856
0.125,0.498,2.005,-38.574,28.809,-186.523
0.110,0.229,2.025,-53.955,67.505,-210.632
0.168,-0.018,2.017,-71.960,97.961,-235.413
0.198,-0.250,1.998,-85.876,118.774,-253.540
0.190,-0.464,1.977,-92.834,134.583,-258.545
0.163,-0.698,1.923,-92.041,150.513,-253.601
0.160,-0.941,1.812,-89.233,168.823,-245.117
0.159,-1.194,1.686,-88.074,188.965,-235.474
0.128,-1.458,1.540,-90.637,211.365,-224.609
0.088,-1.728,1.340,-97.595,234.985,-211.792
0.097,-2.002,1.038,-112.793,258.179,-194.458
0.139,-2.288,0.603,-135.681,275.574,-173.523
0.198,-2.394,0.125,-156.982,285.400,-150.574
0.270,-2.318,-0.368,-165.405,289.795,-124.329
0.457,-2.196,-0.706,-152.100,288.818,-96.069
0.606,-2.083,-1.016,-120.544,279.236,-71.167
0.727,-1.963,-1.186,-89.722,262.695,-45.715
0.745,-1.904,-1.260,-87.158,233.032,-20.569
0.711,-1.839,-1.239,-112.488,187.500,-2.502
0.589,-1.661,-1.220,-148.621,137.390,5.920
0.266,-1.587,-1.086,-173.462,100.769,3.662
-0.442,-1.539,-1.457,-171.265,93.994,-5.615
-0.419,-1.339,-1.044,-141.052,177.246,-15.137
-0.079,-1.178,-1.171,-90.759,246.155,-11.536
0.324,-1.178,-1.507,-35.095,236.084,0.977
0.496,-1.057,-1.665,-9.277,205.200,11.047
0.675,-1.041,-1.557,-12.512,165.588,23.437
0.809,-1.008,-1.394,-31.189,109.680,24.292
0.891,-0.873,-1.194,-54.382,46.570,15.320
0.859,-0.679,-0.938,-72.327,-5.493,13.123
0.791,-0.549,-0.660,-74.158,-39.063,15.503
0.749,-0.495,-0.416,-58.167,-53.833,14.771
0.740,-0.493,-0.241,-30.212,-53.528,10.803
0.729,-0.549,-0.096,-3.357,-44.800,7.385
0.725,-0.640,-0.011,14.343,-32.288,5.859
0.732,-0.699,0.028,21.484,-17.151,6.897
0.750,-0.717,0.024,18.250,-3.296,10.742
0.777,-0.681,-0.001,6.165,7.385,15.625
0.789,-0.603,-0.038,-10.315,14.282,19.836
0.797,-0.522,-0.085,-26.367,18.311,23.499
0.800,-0.455,-0.130,-36.377,20.569,26.794
0.825,-0.380,-0.164,-37.659,21.118,28.992
0.857,-0.311,-0.171,-31.494,19.470,27.344
0.865,-0.296,-0.167,-20.020,16.174,20.935
0.851,-0.322,-0.155,-6.165,12.817,10.437
0.838,-0.382,-0.147,8.423,11.230,-0.610
0.829,-0.468,-0.145,22.888,12.939,-9.155
0.836,-0.592,-0.145,34.180,16.724,-13.550
0.855,-0.694,-0.162,39.063,19.470,-13.794
0.878,-0.762,-0.172,34.180,19.409,-10.010
0.881,-0.781,-0.177,19.897,16.663,-3.662
0.855,-0.740,-0.172,0.610,12.451,2.869
0.834,-0.665,-0.174,-16.113,8.911,9.460
0.810,-0.576,-0.179,-24.597,7.324,15.564
0.797,-0.507,-0.184,-24.170,7.996,19.470
0.782,-0.467,-0.186,-17.090,9.399,19.531
0.775,-0.450,-0.178,-7.751,10.864,16.235
0.775,-0.459,-0.171,0.000,12.390,10.254
0.775,-0.488,-0.168,5.127,13.672,3.967
0.777,-0.511,-0.170,6.653,14.648,-0.488
0.779,-0.534,-0.176,6.775,15.503,-2.380
0.777,-0.555,-0.191,4.944,16.113,-2.686
0.778,-0.566,-0.208,1.221,16.235,-1.648
0.791,-0.559,-0.218,-2.930,15.747,0.305
0.796,-0.541,-0.231,-6.531,14.282,1.465
0.807,-0.524,-0.248,-9.033,11.902,1.587
0.815,-0.515,-0.247,-9.583,9.155,0.549
0.821,-0.518,-0.245,-8.179,6.714,-1.282
0.833,-0.529,-0.245,-5.310,4.150,-3.174
0.832,-0.552,-0.230,-1.648,1.892,-5.615
0.822,-0.580,-0.209,1.587,0.366,-7.141
0.806,-0.611,-0.188,3.662,0.122,-7.019
0.790,-0.630,-0.176,3.540,0.183,-6.409
0.786,-0.635,-0.167,1.953,0.732,-4.883
0.785,-0.628,-0.165,-0.305,1.648,-3.052
0.793,-0.619,-0.173,-2.075,2.441,-1.892
0.800,-0.601,-0.182,-2.197,3.174,-1.221
0.819,-0.590,-0.193,-1.099,4.089,-0.732
0.832,-0.585,-0.205,1.282,4.333,-0.488
0.839,-0.589,-0.209,4.150,4.272,-0.671
0.844,-0.605,-0.214,6.531,3.601,-0.732
0.846,-0.617,-0.219,6.470,2.563,0.061
0.835,-0.625,-0.215,3.662,1.282,1.038
0.819,-0.617,-0.214,-0.244,-0.122,2.991
0.811,-0.600,-0.205,-3.113,-1.038,4.761
0.809,-0.574,-0.199,-4.883,-1.892,6.226
0.805,-0.540,-0.180,-5.493,-2.625,7.019
0.789,-0.511,-0.156,-4.883,-2.686,6.287
0.782,-0.498,-0.141,-3.113,-1.953,4.333
0.787,-0.501,-0.135,-0.427,0.000,2.197
0.785,-0.513,-0.138,2.014,1.831,-0.427
0.786,-0.533,-0.141,3.906,3.784,-2.563
0.791,-0.558,-0.151,5.188,5.554,-4.089
0.795,-0.579,-0.162,4.639,7.141,-5.005
0.787,-0.586,-0.169,2.441,8.179,-5.310
0.809,-0.590,-0.184,0.122,8.484,-5.188
0.818,-0.587,-0.198,-2.197,8.667,-4.517
0.815,-0.579,-0.208,-3.235,8.545,-2.930
0.817,-0.573,-0.215,-3.845,7.324,-1.465
0.809,-0.563,-0.223,-4.395,5.920,-0.244
0.800,-0.551,-0.220,-5.310,4.395,-0.122
0.789,-0.547,-0.219,-5.859,3.479,-0.854
0.782,-0.550,-0.211,-5.554,3.296,-1.953
0.786,-0.562,-0.208,-3.418,3.540,-3.418
0.790,-0.575,-0.202,-0.427,3.845,-5.127
0.773,-0.585,-0.191,2.380,4.211,-6.165
0.799,-0.594,-0.199,4.456,4.395,-6.714
0.812,-0.615,-0.197,6.775,5.188,-6.653
0.814,-0.634,-0.199,7.568,5.493,-5.493
0.819,-0.645,-0.204,5.249,4.822,-4.089
0.807,-0.646,-0.209,1.221,3.662,-2.747
0.801,-0.636,-0.215,-2.930,2.625,-1.160
0.799,-0.616,-0.217,-5.005,1.831,0.916
0.797,-0.598,-0.224,-4.883,1.343,1.953
0.794,-0.581,-0.220,-3.113,1.160,2.136
0.740,0.680,1.275,-86.548,7.141,-2.014
0.723,0.718,1.374,-92.896,22.522,-12.024
0.691,0.754,1.437,-98.450,39.429,-24.109
0.672,0.764,1.432,-105.103,55.176,-36.499
0.623,0.732,1.420,-115.234,71.533,-50.110
0.579,0.672,1.381,-128.784,85.266,-64.209
0.546,0.602,1.338,-142.761,94.727,-79.041
0.495,0.533,1.289,-157.104,100.464,-96.191
0.427,0.448,1.242,-170.227,104.126,-113.464
0.347,0.326,1.185,-180.176,108.276,-127.319
0.281,0.205,1.123,-186.646,113.647,-137.878
0.227,0.085,1.060,-191.467,118.530,-147.644
0.176,-0.048,0.964,-196.533,120.911,-157.959
0.153,-0.188,0.879,-201.538,122.192,-169.189
0.120,-0.352,0.804,-205.688,122.986,-185.059
0.041,-0.518,0.686,-204.468,124.878,-200.745
0.019,-0.775,0.524,-189.819,132.507,-207.336
0.021,-1.010,0.359,-166.016,145.020,-210.083
-0.157,-1.137,0.233,-135.437,161.499,-204.773
0.142,-1.474,0.009,-112.854,175.049,-203.918
0.214,-1.734,-0.354,-97.473,172.180,-213.318
0.391,-1.969,-0.657,-71.655,178.406,-182.251
0.453,-2.079,-0.798,-70.862,176.514,-156.738
0.544,-2.122,-0.808,-84.290,164.551,-119.812
0.524,-2.014,-1.077,-112.854,137.146,-90.576
0.490,-1.930,-0.764,-135.254,121.155,-78.247
0.410,-1.810,-0.920,-141.907,104.065,-78.186
0.399,-1.700,-0.932,-131.836,109.436,-73.120
0.472,-1.638,-0.911,-112.000,123.169,-65.125
0.554,-1.596,-0.901,-86.426,129.944,-57.739
0.589,-1.458,-0.972,-65.735,125.061,-52.490
0.648,-1.455,-1.401,-29.785,119.141,-46.082
0.759,-1.152,-1.530,60.303,119.629,-25.757
0.738,-1.210,-1.590,135.559,97.046,-1.587
0.741,-1.304,-1.528,172.546,55.054,5.859
0.687,-1.257,-1.403,169.434,28.442,2.075
0.687,-1.232,-1.223,137.512,13.428,-1.343
0.765,-1.244,-1.047,90.881,-1.099,-1.892
0.835,-1.192,-0.888,37.781,-19.897,-3.540
0.872,-1.068,-0.650,-11.353,-37.903,-4.700
0.843,-0.938,-0.419,-47.180,-52.124,0.244
0.858,-0.761,-0.227,-66.345,-60.852,7.507
0.825,-0.679,-0.075,-66.711,-61.951,14.526
0.769,-0.648,0.109,-56.580,-54.138,22.766
0.786,-0.652,0.186,-51.758,-40.222,25.452
0.785,-0.502,0.148,-45.166,-26.367,27.405
0.765,-0.450,0.105,-35.583,-9.155,32.104
0.767,-0.431,0.054,-24.536,8.423,36.255
0.779,-0.421,-0.004,-15.198,21.362,36.255
0.775,-0.415,-0.068,-10.498,28.687,32.898
0.777,-0.437,-0.162,-9.338,32.227,28.381
0.768,-0.417,-0.262,-8.728,32.166,24.780
0.752,-0.389,-0.351,-6.531,29.480,23.926
0.749,-0.367,-0.382,-2.930,25.818,22.766
0.745,-0.374,-0.401,2.686,19.409,18.555
0.744,-0.398,-0.397,8.667,11.597,11.169
0.738,-0.448,-0.391,11.292,3.784,3.235
0.726,-0.487,-0.357,10.559,-2.441,-1.282
0.727,-0.507,-0.315,7.996,-6.287,-2.502
0.746,-0.518,-0.284,4.089,-9.460,-3.906
0.762,-0.513,-0.254,0.244,-12.817,-5.798
0.769,-0.507,-0.215,-2.197,-15.930,-6.897
0.776,-0.519,-0.164,-1.709,-18.127,-7.141
0.783,-0.555,-0.117,1.099,-19.409,-7.629
0.776,-0.596,-0.090,3.906,-19.226,-8.484
0.765,-0.624,-0.074,3.357,-16.663,-8.911
0.760,-0.645,-0.064,0.305,-11.597,-8.423
0.769,-0.655,-0.072,-2.686,-5.371,-7.568
0.791,-0.653,-0.097,-4.517,0.427,-6.042
0.810,-0.633,-0.129,-5.859,5.432,-3.967
0.825,-0.621,-0.154,-6.287,9.460,-1.709
0.836,-0.618,-0.157,-6.592,11.780,-0.793
0.835,-0.605,-0.169,-7.690,11.047,-0.916
0.819,-0.592,-0.181,-7.935,9.583,-0.549
0.804,-0.597,-0.181,-7.019,10.254,0.244
0.790,-0.606,-0.190,-5.859,12.451,0.671
0.780,-0.623,-0.211,-5.737,14.282,1.343
0.769,-0.626,-0.233,-7.263,16.357,2.136
0.758,-0.620,-0.254,-9.338,18.433,2.808
0.771,-0.607,-0.274,-11.292,20.020,3.601
0.781,-0.595,-0.281,-13.184,18.555,3.845
0.786,-0.575,-0.283,-14.221,14.404,3.174
0.785,-0.561,-0.279,-13.245,9.949,2.441
0.785,-0.554,-0.270,-10.193,6.104,2.075
0.793,-0.567,-0.251,-6.592,3.235,1.221
0.786,-0.572,-0.237,-3.845,0.427,-0.977
0.780,-0.589,-0.232,-1.831,-1.282,-1.770
0.781,-0.606,-0.217,-0.916,-1.648,-2.319
0.783,-0.611,-0.215,-0.610,-1.343,-2.502
0.780,-0.614,-0.209,-0.244,-0.427,-2.502
0.773,-0.622,-0.216,-0.122,0.610,-2.380
0.777,-0.621,-0.217,-0.305,2.014,-2.197
0.792,-0.617,-0.219,-0.854,2.991,-1.770
0.794,-0.612,-0.225,-1.404,2.319,-0.916
0.787,-0.600,-0.229,-1.465,0.854,0.244
0.792,-0.587,-0.229,-1.221,0.000,0.610
0.791,-0.577,-0.223,-0.854,-0.916,0.366
0.785,-0.579,-0.215,-0.183,-1.465,-0.061
0.789,-0.592,-0.206,0.366,-1.648,-0.549
0.785,-0.599,-0.211,0.610,-1.648,-1.099
0.784,-0.601,-0.215,0.122,-1.526,-0.305
0.786,-0.601,-0.212,-0.793,-1.221,0.488
0.791,-0.598,-0.211,-2.075,-1.648,0.183
0.788,-0.594,-0.205,-2.930,-2.014,-0.061
0.789,-0.592,-0.198,-3.662,-2.197,0.000
0.786,-0.581,-0.195,-3.845,-2.502,-0.061
0.782,-0.577,-0.189,-2.869,-2.380,0.183
0.774,-0.578,-0.185,-0.427,-1.953,0.305
0.767,-0.590,-0.192,2.441,-1.099,-0.122
0.770,-0.602,-0.196,4.028,-0.366,-0.610
0.775,-0.611,-0.197,3.845,0.183,-1.160
0.771,-0.611,-0.197,2.625,0.549,-1.648
0.775,-0.618,-0.195,1.709,1.404,-1.709
0.780,-0.620,-0.203,1.526,2.197,-1.709
0.779,-0.622,-0.210,0.854,2.747,-1.160
0.782,-0.624,-0.226,0.183,3.113,-0.183
0.794,-0.617,-0.224,0.000,3.296,0.366
0.794,-0.613,-0.229,0.305,2.197,0.305
0.783,-0.617,-0.225,1.099,0.793,1.160
0.118,-1.317,1.474,-110.840,144.714,-241.394
0.072,-1.504,1.303,-123.474,173.523,-227.600
0.106,-1.717,1.005,-133.728,204.712,-209.839
0.230,-1.884,0.646,-134.094,231.079,-190.002
0.377,-2.009,0.303,-121.094,249.084,-164.917
0.519,-2.123,0.019,-100.525,260.498,-137.512
0.637,-2.183,-0.231,-86.548,264.465,-110.168
0.719,-2.205,-0.463,-90.393,258.667,-82.397
0.762,-2.137,-0.611,-112.549,242.371,-57.678
0.726,-1.971,-0.753,-141.663,216.736,-38.574
0.623,-1.815,-0.892,-163.513,188.965,-25.391
0.561,-1.673,-0.994,-165.100,167.786,-20.935
0.596,-1.546,-1.064,-144.592,155.212,-20.508
0.703,-1.496,-1.097,-116.150,145.813,-14.893
0.819,-1.406,-1.063,-95.764,132.019,-4.944
0.753,-1.349,-0.951,-93.872,107.544,6.836
0.534,-1.280,-0.773,-111.694,77.820,17.151
0.281,-1.153,-0.655,-138.794,56.946,19.775
-0.048,-0.993,-0.850,-159.485,57.373,18.738
-0.021,-0.810,-0.768,-156.494,101.135,16.235
0.177,-0.649,-0.840,-127.869,133.301,12.634
0.469,-0.648,-1.019,-81.787,132.019,10.559
0.727,-0.675,-1.094,-39.551,118.591,6.958
0.953,-0.698,-1.010,-15.076,92.407,-0.366
1.066,-0.742,-0.878,-6.470,52.368,-8.606
1.037,-0.765,-0.700,-7.385,11.169,-15.137
0.957,-0.741,-0.517,-12.878,-18.860,-16.663
0.906,-0.725,-0.345,-18.311,-36.499,-12.817
0.880,-0.716,-0.187,-21.240,-43.518,-5.737
0.855,-0.706,-0.061,-21.301,-43.701,1.587
0.803,-0.695,0.014,-21.179,-38.757,8.301
0.756,-0.667,0.050,-20.447,-28.687,13.550
0.746,-0.612,0.059,-18.494,-15.442,16.907
0.764,-0.562,0.045,-15.015,-2.930,16.785
0.791,-0.514,0.026,-8.850,7.019,14.343
0.795,-0.472,0.012,-2.075,14.160,10.986
0.801,-0.442,0.005,4.822,18.555,7.690
0.802,-0.429,0.013,10.742,20.081,3.967
0.782,-0.443,0.030,15.137,20.081,-0.854
0.750,-0.478,0.044,17.578,19.958,-5.371
0.739,-0.516,0.032,16.541,21.240,-9.644
0.741,-0.560,0.000,12.634,24.109,-12.390
0.789,-0.597,-0.052,8.423,27.100,-11.780
0.842,-0.613,-0.092,6.042,28.320,-8.911
0.864,-0.622,-0.118,4.639,26.917,-5.981
0.870,-0.614,-0.132,1.587,23.682,-4.150
0.869,-0.591,-0.137,-2.441,19.714,-2.625
0.854,-0.564,-0.134,-6.287,15.686,-2.014
0.825,-0.534,-0.125,-8.057,13.306,-2.686
0.795,-0.502,-0.110,-5.737,13.000,-5.615
0.765,-0.494,-0.095,0.488,15.381,-10.132
0.743,-0.519,-0.088,10.132,20.142,-15.015
0.750,-0.590,-0.104,18.433,26.062,-18.921
0.769,-0.651,-0.133,20.508,30.457,-20.874
0.788,-0.700,-0.174,15.259,31.860,-19.836
0.796,-0.736,-0.232,7.751,30.273,-15.991
0.796,-0.747,-0.266,2.258,27.039,-8.545
0.788,-0.740,-0.299,-1.160,22.644,-0.610
0.781,-0.716,-0.325,-4.761,17.029,5.310
0.775,-0.682,-0.335,-8.667,11.108,8.850
0.784,-0.652,-0.323,-11.047,5.859,10.376
0.793,-0.629,-0.301,-9.949,0.793,9.338
0.797,-0.611,-0.266,-6.287,-2.869,6.714
0.785,-0.612,-0.222,-1.892,-4.944,3.662
0.779,-0.627,-0.178,3.052,-5.554,1.160
0.782,-0.656,-0.156,7.080,-4.944,-0.854
0.786,-0.674,-0.150,10.071,-3.906,-1.282
0.793,-0.677,-0.144,11.536,-2.808,-0.366
0.792,-0.683,-0.136,11.353,-2.380,0.610
0.789,-0.683,-0.132,8.728,-2.502,1.038
0.786,-0.675,-0.126,4.822,-2.197,2.136
0.787,-0.662,-0.130,2.014,-1.404,3.967
0.786,-0.642,-0.139,-0.122,-0.244,5.798
0.788,-0.622,-0.152,-1.526,0.305,7.141
0.791,-0.601,-0.159,-2.747,0.122,8.179
0.782,-0.578,-0.163,-3.418,-0.549,8.362
0.779,-0.549,-0.161,-3.479,-1.282,7.751
0.773,-0.528,-0.160,-2.441,-1.587,6.104
0.769,-0.524,-0.157,0.732,-0.977,3.540
0.780,-0.532,-0.153,6.165,0.488,0.977
0.794,-0.561,-0.158,11.353,2.136,-1.282
0.801,-0.599,-0.164,14.526,3.052,-2.197
0.803,-0.621,-0.168,14.771,2.991,-1.709
0.798,-0.634,-0.164,11.780,2.136,-0.183
0.789,-0.635,-0.163,6.714,0.732,1.587
0.777,-0.624,-0.166,0.610,-1.038,3.174
0.772,-0.601,-0.162,-4.089,-2.136,4.211
0.772,-0.580,-0.157,-6.042,-2.808,4.333
0.771,-0.563,-0.153,-5.310,-2.930,3.174
0.777,-0.556,-0.147,-2.380,-2.502,1.343
0.788,-0.568,-0.134,1.770,-1.587,-0.916
0.798,-0.588,-0.122,5.615,-0.122,-2.258
0.799,-0.609,-0.115,7.385,1.587,-2.930
0.797,-0.635,-0.111,6.714,2.869,-3.113
0.791,-0.648,-0.116,3.845,4.150,-2.502
0.792,-0.649,-0.139,-0.671,5.066,-1.526
0.792,-0.642,-0.159,-4.456,5.249,0.671
0.795,-0.622,-0.172,-5.920,4.883,3.113
0.794,-0.601,-0.178,-5.371,3.967,4.761
0.785,-0.586,-0.180,-3.845,3.296,4.395
0.781,-0.577,-0.181,-1.953,2.869,2.686
0.789,-0.573,-0.175,0.549,2.930,1.038
0.791,-0.583,-0.163,3.723,2.930,-0.610
0.782,-0.606,-0.155,7.141,3.052,-1.526
0.775,-0.621,-0.152,8.301,3.418,-1.526
0.777,-0.641,-0.157,6.714,3.662,-1.099
0.782,-0.647,-0.168,2.808,3.296,0.000
0.784,-0.633,-0.172,-1.587,2.625,1.587
0.784,-0.611,-0.179,-4.761,1.648,2.747
0.780,-0.595,-0.184,-5.737,1.221,2.808
0.777,-0.580,-0.189,-4.822,1.404,2.136
0.783,-0.578,-0.198,-2.197,1.587,1.221
0.798,-0.585,-0.205,0.977,1.404,0.366
0.806,-0.594,-0.199,3.418,0.610,-0.061
0.802,-0.608,-0.184,4.395,-0.488,-0.366
0.798,-0.613,-0.167,3.906,-1.526,-0.183
0.797,-0.612,-0.150,2.563,-2.197,-0.122
0.802,-0.610,-0.139,1.160,-2.380,0.488
0.796,-0.611,-0.125,0.366,-2.441,0.427
0.595,-1.863,-0.558,-28.259,135.498,-98.694
0.552,-1.949,-0.621,-22.766,127.869,-72.510
0.516,-1.991,-0.698,-48.401,115.845,-54.871
0.516,-1.906,-0.789,-86.853,104.004,-43.518
0.491,-1.781,-0.824,-118.530,95.520,-35.339
0.493,-1.643,-0.817,-126.221,93.079,-28.625
0.515,-1.437,-0.837,-110.779,93.994,-20.813
0.583,-1.271,-0.906,-85.266,93.445,-10.437
0.671,-1.259,-1.042,-44.739,89.600,1.892
0.725,-1.106,-1.128,-2.686,73.303,9.338
0.716,-1.063,-1.138,22.644,42.725,14.404
0.732,-1.011,-1.026,30.090,12.329,13.977
0.703,-0.979,-0.818,22.949,-12.207,5.798
0.689,-0.971,-0.654,6.042,-32.104,-2.380
0.720,-0.922,-0.468,-11.841,-44.128,-5.798
0.741,-0.888,-0.305,-21.423,-48.950,-4.639
0.759,-0.847,-0.175,-24.170,-49.622,-1.160
0.779,-0.861,-0.054,-23.865,-48.157,3.601
0.824,-0.774,0.044,-23.804,-46.265,9.277
0.802,-0.708,0.150,-25.574,-42.847,15.320
0.776,-0.651,0.226,-25.879,-34.241,21.545
0.747,-0.570,0.256,-26.672,-20.935,25.513
0.725,-0.500,0.215,-26.733,-4.395,25.940
0.711,-0.448,0.147,-23.071,12.695,23.437
0.706,-0.435,0.059,-14.343,28.503,18.616
0.700,-0.437,-0.047,-3.113,40.100,12.573
0.702,-0.482,-0.158,9.094,47.363,5.554
0.715,-0.530,-0.276,18.982,48.950,-0.549
0.728,-0.624,-0.368,26.489,46.021,-2.930
0.745,-0.669,-0.424,31.311,38.330,-2.319
0.743,-0.742,-0.426,30.212,27.344,1.770
0.737,-0.755,-0.387,19.897,14.771,5.188
0.715,-0.715,-0.341,2.625,2.686,5.310
0.704,-0.669,-0.291,-13.489,-6.287,4.761
0.697,-0.640,-0.236,-24.231,-13.428,3.845
0.710,-0.606,-0.188,-27.466,-17.822,2.747
0.721,-0.583,-0.137,-26.001,-21.729,0.244
0.739,-0.566,-0.090,-21.118,-23.437,-2.380
0.756,-0.564,-0.038,-13.550,-22.461,-5.005
0.777,-0.591,-0.005,-4.578,-20.447,-8.362
0.783,-0.626,0.015,6.531,-16.907,-10.193
0.778,-0.674,0.033,16.418,-11.841,-10.437
0.774,-0.721,0.036,21.545,-6.470,-10.498
0.770,-0.751,0.023,21.362,-1.526,-9.644
0.770,-0.771,0.004,16.785,3.601,-7.019
0.768,-0.747,-0.037,9.644,7.385,-3.784
0.761,-0.708,-0.078,2.014,9.644,-0.732
0.760,-0.675,-0.116,-3.174,10.315,2.014
0.759,-0.630,-0.155,-5.493,9.216,3.784
0.749,-0.604,-0.173,-5.493,6.897,4.028
0.746,-0.590,-0.180,-3.113,4.578,3.357
0.744,-0.604,-0.183,-0.488,2.258,1.648
0.741,-0.633,-0.175,0.610,-0.305,-0.488
0.738,-0.650,-0.162,-0.488,-2.136,-1.953
0.736,-0.660,-0.143,-2.380,-3.174,-2.380
0.736,-0.668,-0.128,-3.479,-3.845,-2.380
0.739,-0.677,-0.115,-3.662,-3.967,-2.075
0.745,-0.677,-0.103,-3.662,-3.418,-1.526
0.753,-0.672,-0.089,-3.113,-3.052,-1.282
0.757,-0.675,-0.079,-1.892,-2.747,-1.038
0.756,-0.683,-0.073,0.427,-2.319,-1.343
0.759,-0.700,-0.067,3.174,-1.465,-1.160
0.760,-0.713,-0.071,4.639,-0.366,-0.610
0.758,-0.716,-0.080,4.395,0.488,0.183
0.754,-0.711,-0.088,3.235,1.099,0.732
0.749,-0.700,-0.100,1.465,1.526,1.282
0.747,-0.679,-0.113,0.305,2.197,1.770
0.747,-0.660,-0.128,-0.122,2.625,2.136
0.747,-0.644,-0.140,0.122,2.930,2.563
0.748,-0.644,-0.148,0.671,2.869,2.380
0.746,-0.643,-0.148,1.221,1.587,1.709
0.742,-0.643,-0.144,1.770,0.000,1.404
0.735,-0.641,-0.131,1.892,-1.221,1.099
0.731,-0.642,-0.121,1.160,-2.014,0.549
0.738,-0.641,-0.109,0.305,-2.319,0.000
0.747,-0.645,-0.100,-0.549,-2.502,-0.366
0.748,-0.648,-0.093,-1.099,-2.625,-0.610
0.746,-0.652,-0.085,-1.526,-2.502,-0.916
0.741,-0.660,-0.079,-1.831,-2.319,-1.221
0.739,-0.666,-0.079,-1.526,-2.014,-1.587
0.738,-0.667,-0.083,-0.549,-1.038,-1.831
0.741,-0.677,-0.086,1.099,0.061,-1.587
0.748,-0.684,-0.090,2.136,0.854,-1.343
0.746,-0.687,-0.091,2.441,0.977,-1.038
0.744,-0.692,-0.097,1.770,0.977,-0.671
0.749,-0.691,-0.108,1.160,1.099,0.000
0.758,-0.690,-0.112,0.244,1.038,0.671
0.760,-0.687,-0.117,-0.916,0.305,1.221
0.759,-0.676,-0.117,-1.892,-0.305,1.465
0.754,-0.662,-0.115,-2.197,-0.732,1.831
0.747,-0.654,-0.108,-1.770,-0.793,1.648
0.743,-0.646,-0.104,-0.366,-0.305,1.038
0.747,-0.642,-0.098,0.916,0.122,0.244
0.749,-0.648,-0.093,2.075,0.427,-0.244
0.743,-0.659,-0.089,2.258,0.244,-0.916
0.736,-0.663,-0.088,1.648,0.305,-1.221
0.733,-0.673,-0.092,0.732,0.671,-0.854
0.736,-0.679,-0.101,0.122,0.671,-0.244
0.735,-0.683,-0.106,0.000,0.671,-0.183
0.742,-0.683,-0.108,0.244,0.793,-0.061
0.751,-0.693,-0.109,-0.061,0.549,-0.305
0.758,-0.696,-0.107,-0.549,-0.061,-0.244
0.763,-0.690,-0.102,-1.404,-0.366,0.244
0.760,-0.678,-0.096,-2.197,-0.427,0.916
0.748,-0.666,-0.093,-2.625,-0.549,1.160
0.738,-0.657,-0.095,-2.136,0.122,1.099
0.733,-0.656,-0.101,-1.099,0.732,1.099
0.730,-0.662,-0.105,0.610,1.465,0.610
0.729,-0.675,-0.107,2.136,2.014,0.366
0.735,-0.691,-0.117,3.052,2.319,0.122
0.744,-0.698,-0.124,2.441,1.465,0.366
0.748,-0.693,-0.120,0.854,0.488,1.343
0.750,-0.679,-0.117,-0.854,-0.488,2.075
0.750,-0.668,-0.116,-2.502,-1.282,2.136
0.752,-0.662,-0.113,-3.418,-1.709,2.136
0.751,-0.655,-0.102,-3.418,-2.197,1.770
0.743,-0.654,-0.089,-2.930,-2.380,1.099
0.731,-0.658,-0.079,-1.038,-2.136,0.549
0.727,-0.670,-0.075,0.977,-0.977,0.061
0.486,0.712,1.335,-21.606,-2.075,-131.348
0.373,0.489,1.444,-24.536,20.874,-150.391
0.288,0.256,1.513,-38.940,44.067,-166.382
0.265,0.073,1.520,-66.956,65.491,-180.359
0.256,-0.073,1.454,-100.403,83.496,-192.261
0.270,-0.208,1.360,-129.150,101.257,-202.515
0.298,-0.364,1.230,-148.926,116.577,-209.900
0.331,-0.552,1.075,-157.043,125.916,-212.097
0.322,-0.717,0.976,-152.710,132.385,-207.153
0.323,-0.917,0.898,-139.832,141.968,-194.702
0.358,-1.116,0.829,-132.629,150.513,-179.810
0.365,-1.284,0.740,-144.531,152.466,-168.152
0.369,-1.441,0.677,-171.936,150.696,-161.682
0.377,-1.501,0.571,-203.308,144.714,-161.377
0.345,-1.532,0.465,-225.098,138.611,-162.598
0.339,-1.611,0.317,-224.487,141.418,-160.645
0.401,-1.714,0.126,-197.510,155.396,-155.762
0.510,-1.821,-0.071,-150.940,178.284,-145.935
0.609,-1.974,-0.270,-102.661,198.792,-127.991
0.686,-2.102,-0.476,-66.223,208.374,-104.126
0.741,-2.126,-0.606,-50.476,205.078,-78.003
0.748,-2.061,-0.687,-59.082,188.660,-50.476
0.701,-1.918,-0.696,-88.745,162.231,-28.503
0.647,-1.686,-0.697,-125.122,132.141,-15.320
0.589,-1.496,-0.678,-154.114,107.178,-10.132
0.553,-1.329,-0.670,-166.138,90.515,-9.827
0.571,-1.153,-0.629,-161.560,78.979,-8.362
0.563,-1.019,-0.615,-145.020,70.435,-6.042
0.573,-0.921,-0.595,-119.873,66.650,-7.996
0.582,-0.865,-0.583,-88.745,65.735,-12.512
0.541,-0.887,-0.586,-58.472,67.444,-17.883
0.486,-0.979,-0.692,-36.682,84.167,-24.597
0.485,-0.977,-0.596,-19.043,110.107,-31.372
0.558,-1.016,-0.719,-2.930,115.784,-26.001
0.693,-1.030,-0.795,7.141,109.985,-15.442
0.836,-1.005,-0.827,5.676,96.008,-4.700
0.938,-0.932,-0.810,-5.493,70.374,4.211
1.001,-0.843,-0.760,-22.217,34.546,12.573
0.986,-0.714,-0.641,-39.429,-3.418,18.250
0.895,-0.574,-0.480,-48.218,-35.950,21.790
0.794,-0.480,-0.317,-44.922,-58.105,20.874
0.729,-0.430,-0.162,-30.396,-68.237,13.489
0.689,-0.455,-0.001,-5.920,-65.674,3.784
0.667,-0.563,0.098,23.743,-53.223,-3.113
0.679,-0.689,0.150,46.387,-37.537,-7.141
0.716,-0.771,0.162,53.345,-22.644,-7.935
0.771,-0.814,0.163,48.462,-10.254,-6.165
0.809,-0.838,0.119,38.391,-2.380,-2.808
0.835,-0.817,0.078,26.306,2.197,2.075
0.844,-0.764,0.052,13.367,2.747,7.568
0.816,-0.694,0.032,2.075,1.892,12.146
0.786,-0.623,0.013,-4.761,2.380,15.381
0.776,-0.566,-0.007,-7.507,4.883,16.724
0.779,-0.520,-0.037,-7.324,7.446,15.930
0.783,-0.492,-0.063,-4.883,8.972,13.184
0.791,-0.490,-0.079,-1.648,8.484,8.972
0.788,-0.503,-0.087,2.686,6.348,3.967
0.792,-0.536,-0.084,7.385,3.784,0.427
0.788,-0.574,-0.074,9.644,1.587,-1.343
0.789,-0.606,-0.057,9.644,0.122,-1.160
0.799,-0.620,-0.038,7.080,-0.610,0.061
0.800,-0.619,-0.025,2.380,-1.282,1.404
0.788,-0.600,-0.014,-2.380,-1.038,2.258
0.785,-0.585,-0.011,-5.188,0.122,2.808
0.783,-0.578,-0.015,-6.836,1.648,2.625
0.774,-0.571,-0.024,-8.423,3.479,1.709
0.768,-0.562,-0.036,-9.216,5.005,-0.122
0.774,-0.560,-0.052,-7.385,6.714,-1.770
0.786,-0.567,-0.068,-3.845,8.057,-2.991
0.798,-0.582,-0.082,0.549,8.484,-3.906
0.803,-0.600,-0.086,3.906,7.751,-5.066
0.801,-0.623,-0.081,4.883,6.042,-5.981
0.791,-0.654,-0.070,4.578,4.333,-6.226
0.780,-0.672,-0.061,2.808,3.174,-5.188
0.778,-0.674,-0.054,-0.671,2.441,-3.723
0.776,-0.664,-0.051,-4.456,2.197,-2.258
0.770,-0.646,-0.048,-7.324,2.197,-1.465
0.764,-0.627,-0.058,-7.874,2.991,-1.404
0.770,-0.617,-0.072,-6.226,4.333,-1.831
0.778,-0.622,-0.088,-3.296,5.371,-2.747
0.785,-0.638,-0.100,0.793,5.615,-4.578
0.796,-0.654,-0.107,5.737,5.432,-5.310
0.805,-0.657,-0.108,9.888,4.822,-4.578
0.798,-0.665,-0.101,12.878,4.150,-3.479
0.803,-0.679,-0.091,14.404,3.967,-2.502
0.807,-0.690,-0.089,13.611,3.357,-1.831
0.806,-0.692,-0.088,10.315,2.197,-0.488
0.798,-0.685,-0.083,4.883,0.916,1.709
0.785,-0.672,-0.081,-0.427,0.000,3.906
0.777,-0.642,-0.083,-4.395,-0.366,5.371
0.776,-0.609,-0.083,-5.554,-0.183,5.920
0.779,-0.590,-0.081,-3.906,0.305,5.188
0.778,-0.588,-0.080,0.000,0.427,3.479
0.782,-0.601,-0.080,5.127,0.793,2.136
0.786,-0.615,-0.078,9.094,0.977,1.709
0.790,-0.626,-0.074,10.437,0.854,1.343
0.792,-0.639,-0.068,8.728,0.244,1.343
0.791,-0.644,-0.063,4.761,-0.549,2.136
0.786,-0.629,-0.059,-0.366,-1.648,3.296
0.778,-0.604,-0.053,-4.395,-2.258,4.150
0.773,-0.590,-0.048,-6.531,-2.258,4.272
0.774,-0.575,-0.048,-6.287,-1.770,4.089
0.777,-0.562,-0.049,-4.700,-1.038,3.296
0.775,-0.565,-0.046,-2.136,0.183,1.282
0.775,-0.584,-0.046,1.282,1.404,-0.793
0.771,-0.607,-0.051,4.211,2.319,-2.197
0.772,-0.627,-0.056,5.798,3.601,-2.563
0.778,-0.648,-0.060,5.859,4.456,-2.808
0.780,-0.668,-0.067,4.517,4.578,-2.502
0.780,-0.671,-0.078,1.953,4.333,-1.404
0.783,-0.658,-0.090,-1.404,3.784,0.183
0.787,-0.644,-0.096,-4.822,2.808,1.282
0.783,-0.622,-0.099,-7.202,1.770,1.892
0.773,-0.604,-0.101,-7.263,1.038,1.770
0.778,-0.597,-0.105,-4.822,1.160,1.465
0.792,-0.602,-0.109,-0.732,1.404,0.427
0.794,-0.621,-0.105,3.540,1.038,-0.916
0.791,-0.649,-0.102,6.409,0.427,-2.014
0.793,-0.673,-0.101,7.874,0.183,-2.136
0.354,-2.062,-0.482,-143.799,161.133,-157.471
0.227,-2.120,-0.836,-158.325,138.306,-144.226
0.212,-2.145,-0.998,-152.283,134.888,-137.207
0.290,-2.125,-1.099,-132.019,140.320,-129.944
0.458,-2.157,-1.167,-103.882,142.273,-115.417
0.589,-2.172,-1.135,-78.064,135.193,-94.238
0.591,-2.091,-1.085,-65.979,118.958,-72.449
0.595,-2.259,-1.528,-55.054,98.694,-50.659
0.704,-1.941,-1.622,-2.930,82.214,-23.315
0.620,-1.852,-1.580,28.687,37.170,2.808
0.516,-1.624,-1.369,6.165,-2.930,14.954
0.593,-1.308,-1.133,-45.715,-35.706,9.827
0.708,-1.234,-0.850,-82.214,-58.960,0.366
0.815,-1.090,-0.621,-97.046,-75.623,-10.986
0.889,-1.022,-0.340,-91.187,-91.248,-18.677
0.884,-0.974,-0.024,-76.599,-105.957,-20.813
0.821,-0.873,0.271,-59.021,-113.708,-17.273
0.719,-0.779,0.490,-40.710,-108.948,-7.812
0.545,-0.660,0.572,-28.381,-88.318,5.493
0.452,-0.574,0.571,-23.193,-52.551,18.127
0.458,-0.510,0.450,-21.057,-12.207,25.391
0.554,-0.474,0.285,-17.639,22.644,26.428
0.648,-0.464,0.145,-10.498,46.631,23.376
0.678,-0.514,0.013,-1.343,58.533,19.958
0.669,-0.562,-0.106,6.409,62.683,14.954
0.678,-0.595,-0.219,13.550,62.500,10.010
0.681,-0.641,-0.305,19.531,61.218,7.690
0.674,-0.664,-0.369,24.780,58.777,6.653
0.676,-0.724,-0.423,29.053,51.270,6.104
0.683,-0.774,-0.435,29.846,38.574,7.812
0.691,-0.790,-0.388,23.804,22.949,10.498
0.705,-0.776,-0.320,11.536,7.141,12.268
0.720,-0.740,-0.244,-1.831,-7.751,11.414
0.707,-0.716,-0.167,-11.963,-20.264,9.338
0.701,-0.680,-0.094,-17.517,-28.137,7.690
0.725,-0.652,-0.035,-17.944,-32.043,6.165
0.742,-0.616,0.004,-13.611,-32.898,5.310
0.733,-0.628,0.057,-5.859,-31.677,5.554
0.720,-0.634,0.107,-0.488,-29.236,5.249
0.707,-0.619,0.149,1.953,-25.330,4.272
0.683,-0.619,0.173,3.235,-19.348,4.028
0.659,-0.627,0.177,3.784,-11.658,3.967
0.640,-0.636,0.159,2.686,-2.930,2.686
0.648,-0.641,0.116,1.465,5.554,-0.183
0.677,-0.671,0.055,1.709,12.756,-2.197
0.708,-0.704,-0.002,2.441,17.883,-2.930
0.741,-0.727,-0.054,3.174,20.874,-2.319
0.763,-0.732,-0.096,3.906,20.691,-0.488
0.761,-0.735,-0.124,4.639,18.250,2.197
0.750,-0.738,-0.141,4.761,14.587,4.272
0.740,-0.726,-0.148,3.906,10.254,5.432
0.734,-0.724,-0.145,2.502,5.615,5.554
0.729,-0.731,-0.132,0.366,1.343,4.028
0.740,-0.738,-0.118,-2.014,-2.502,1.831
0.751,-0.752,-0.094,-3.967,-5.798,0.183
0.741,-0.752,-0.054,-4.089,-8.301,-0.549
0.731,-0.746,-0.016,-2.258,-8.911,0.427
0.726,-0.731,0.015,0.061,-7.935,1.282
0.712,-0.717,0.037,1.648,-6.104,2.502
0.695,-0.701,0.046,2.258,-3.784,3.418
0.686,-0.683,0.043,1.831,-1.465,3.906
0.682,-0.669,0.021,0.488,0.610,3.906
0.690,-0.662,-0.001,-0.977,2.258,3.296
0.708,-0.651,-0.022,-1.221,3.235,2.258
0.724,-0.652,-0.035,0.061,3.418,1.587
0.739,-0.656,-0.046,1.648,3.784,0.916
0.755,-0.666,-0.057,2.319,3.845,0.183
0.755,-0.683,-0.060,1.831,3.479,-0.488
0.748,-0.694,-0.059,0.977,2.502,-0.854
0.737,-0.702,-0.056,-0.427,1.282,-0.793
0.720,-0.708,-0.059,-1.770,0.427,-0.488
0.708,-0.711,-0.059,-2.502,-0.061,0.061
0.705,-0.713,-0.054,-2.563,-0.366,0.366
0.704,-0.713,-0.046,-1.587,-0.427,-0.061
0.711,-0.713,-0.039,-0.244,-0.427,-0.488
0.718,-0.711,-0.031,0.916,-0.122,-0.305
0.725,-0.706,-0.028,1.526,0.122,0.000
0.732,-0.703,-0.024,1.831,0.305,0.244
0.733,-0.704,-0.023,1.770,0.427,0.366
0.719,-0.706,-0.023,0.977,0.488,-0.183
0.713,-0.713,-0.034,0.183,1.038,-0.732
0.720,-0.725,-0.048,0.366,1.343,-0.671
0.724,-0.729,-0.050,1.648,1.099,0.305
0.724,-0.724,-0.045,2.808,0.488,1.404
0.724,-0.715,-0.039,3.174,0.366,2.014
0.724,-0.700,-0.038,2.319,0.244,2.197
0.721,-0.685,-0.038,0.488,0.305,2.563
0.712,-0.675,-0.040,-0.366,0.427,2.197
0.705,-0.680,-0.042,-0.061,0.732,1.221
0.704,-0.695,-0.045,1.160,0.854,0.366
0.709,-0.709,-0.045,2.563,0.977,0.305
0.714,-0.717,-0.040,3.296,1.038,0.610
0.724,-0.724,-0.036,2.808,0.977,0.977
0.735,-0.720,-0.036,1.038,0.549,0.977
0.745,-0.711,-0.035,-0.793,0.244,1.221
0.745,-0.698,-0.031,-1.587,0.000,2.136
0.729,-0.687,-0.023,-1.526,-0.549,2.625
0.713,-0.676,-0.021,-0.977,-0.549,1.953
0.705,-0.676,-0.020,0.366,0.427,0.793
0.703,-0.689,-0.024,2.380,2.014,-0.244
0.704,-0.706,-0.033,3.662,3.296,-0.916
0.721,-0.723,-0.048,3.906,4.272,-1.160
0.738,-0.719,-0.051,2.625,4.395,-0.549
0.742,-0.714,-0.058,1.709,3.174,0.610
0.736,-0.701,-0.059,0.732,2.136,1.465
0.728,-0.691,-0.058,0.122,1.282,1.770
0.718,-0.687,-0.054,0.000,0.732,1.709
0.712,-0.686,-0.047,0.244,0.366,1.404
0.705,-0.689,-0.047,0.366,-0.061,1.038
0.694,-0.697,-0.047,0.122,-0.610,0.488
0.693,-0.700,-0.041,-0.122,-0.732,-0.122
0.700,-0.697,-0.040,-0.427,-0.854,0.061
0.707,-0.691,-0.031,-0.671,-0.610,0.366
0.712,-0.692,-0.026,-0.793,-0.366,0.366
0.720,-0.697,-0.027,-0.793,-0.244,0.244
0.730,-0.701,-0.029,-0.671,-0.305,0.244
0.737,-0.709,-0.029,-0.305,-0.366,0.427
0.732,-0.719,-0.027,-0.122,-0.305,0.366
0.731,-0.728,-0.026,0.061,0.122,0.061
0.506,-1.566,0.428,-105.347,148.193,-136.597
0.408,-1.642,0.268,-126.282,144.775,-129.333
0.398,-1.651,0.070,-135.010,150.391,-128.113
0.416,-1.647,-0.077,-126.648,163.147,-123.657
0.445,-1.669,-0.144,-102.234,178.101,-112.549
0.470,-1.698,-0.217,-77.087,187.012,-98.083
0.473,-1.712,-0.285,-69.458,184.814,-82.092
0.463,-1.666,-0.349,-83.557,173.157,-64.270
0.425,-1.554,-0.447,-111.023,155.090,-49.011
0.347,-1.479,-0.511,-135.437,139.709,-44.739
0.337,-1.404,-0.608,-139.893,134.216,-48.279
0.390,-1.327,-0.691,-125.122,134.460,-50.415
0.413,-1.328,-0.751,-100.769,134.888,-46.631
0.518,-1.340,-0.726,-75.195,133.972,-39.612
0.458,-1.322,-0.909,-55.786,125.977,-32.349
0.489,-1.276,-0.932,-46.814,129.333,-24.109
0.493,-1.191,-0.901,-47.180,134.949,-14.832
0.552,-1.089,-0.922,-45.959,132.629,-3.174
0.662,-1.018,-0.947,-44.983,119.507,6.470
0.780,-0.947,-0.952,-47.180,97.778,8.728
0.878,-0.867,-0.910,-50.476,69.824,3.784
0.922,-0.796,-0.831,-49.194,39.490,-4.761
0.887,-0.758,-0.715,-38.391,14.648,-11.902
0.838,-0.754,-0.573,-21.057,-2.014,-14.709
0.805,-0.772,-0.450,-3.967,-12.695,-15.686
0.812,-0.799,-0.359,8.728,-19.958,-15.137
0.816,-0.832,-0.293,16.113,-25.391,-12.085
0.791,-0.850,-0.212,18.433,-29.297,-7.019
0.766,-0.861,-0.143,17.578,-30.823,-2.563
0.740,-0.855,-0.098,14.893,-29.236,1.465
0.736,-0.817,-0.064,10.010,-25.391,5.859
0.751,-0.764,-0.028,5.066,-20.691,10.254
0.767,-0.712,0.006,2.625,-16.968,13.000
0.760,-0.668,0.041,3.113,-13.977,12.573
0.719,-0.637,0.058,4.211,-11.780,10.193
0.700,-0.610,0.064,6.165,-8.423,9.338
0.691,-0.592,0.064,8.240,-3.906,8.118
0.691,-0.582,0.038,9.094,-0.488,6.104
0.700,-0.575,0.008,9.583,3.540,2.686
0.728,-0.588,-0.028,10.986,6.836,-0.793
0.752,-0.613,-0.059,12.817,9.155,-3.479
0.767,-0.648,-0.086,14.709,10.376,-4.883
0.784,-0.677,-0.105,14.465,9.644,-4.333
0.796,-0.698,-0.108,12.512,7.385,-2.136
0.789,-0.700,-0.096,8.362,4.395,0.916
0.764,-0.679,-0.076,1.953,2.075,3.967
0.741,-0.641,-0.056,-4.639,0.977,5.249
0.725,-0.612,-0.049,-8.911,1.465,5.066
0.696,-0.597,-0.040,-8.606,3.967,3.113
0.689,-0.608,-0.045,-4.089,8.789,0.427
0.687,-0.627,-0.068,1.648,14.648,-2.136
0.711,-0.643,-0.099,5.859,20.142,-4.089
0.732,-0.650,-0.112,8.057,23.376,-6.287
0.741,-0.684,-0.140,10.010,24.048,-7.324
0.758,-0.715,-0.166,11.963,23.621,-5.981
0.771,-0.737,-0.184,10.742,20.935,-2.686
0.765,-0.739,-0.199,4.333,15.686,0.244
0.751,-0.718,-0.204,-3.906,9.949,2.563
0.738,-0.682,-0.200,-10.986,5.127,3.235
0.731,-0.650,-0.189,-13.245,2.258,2.441
0.733,-0.635,-0.176,-9.155,1.526,0.793
0.743,-0.643,-0.163,-1.099,2.197,-1.160
0.746,-0.667,-0.148,7.568,3.601,-2.380
0.746,-0.693,-0.141,13.245,4.700,-3.113
0.742,-0.696,-0.135,14.343,5.371,-3.296
0.741,-0.711,-0.121,13.000,5.676,-3.540
0.734,-0.741,-0.119,11.719,6.409,-3.052
0.728,-0.751,-0.133,8.789,6.470,-1.526
0.721,-0.743,-0.143,3.296,5.676,0.183
0.726,-0.721,-0.153,-2.441,4.700,1.587
0.733,-0.692,-0.162,-6.287,3.540,2.502
0.732,-0.664,-0.162,-7.690,2.625,3.174
0.732,-0.641,-0.157,-6.409,1.892,3.357
0.735,-0.629,-0.154,-3.967,1.709,3.113
0.735,-0.627,-0.154,-1.282,1.526,2.258
0.734,-0.626,-0.151,2.075,1.587,1.282
0.734,-0.637,-0.145,5.920,1.648,0.122
0.735,-0.666,-0.145,8.850,1.831,-0.916
0.735,-0.694,-0.147,9.460,1.709,-1.221
0.742,-0.714,-0.145,7.202,1.160,-0.854
0.754,-0.719,-0.146,3.601,0.122,0.488
0.755,-0.701,-0.143,-1.038,-1.038,2.502
0.748,-0.670,-0.136,-4.761,-1.953,4.089
0.739,-0.635,-0.128,-6.470,-2.441,4.761
0.729,-0.617,-0.127,-5.798,-2.441,4.395
0.715,-0.612,-0.130,-2.808,-2.136,3.418
0.713,-0.617,-0.134,2.258,-1.160,1.648
0.709,-0.640,-0.139,6.897,-0.244,-0.488
0.714,-0.673,-0.148,9.216,0.122,-2.258
0.720,-0.697,-0.159,8.911,-0.244,-2.869
0.727,-0.722,-0.160,6.958,-1.160,-2.747
0.735,-0.735,-0.165,4.517,-1.831,-1.831
0.748,-0.733,-0.171,0.183,-2.747,0.061
0.748,-0.720,-0.173,-4.333,-4.639,1.587
0.736,-0.705,-0.167,-6.470,-6.165,2.441
0.725,-0.696,-0.171,-5.371,-6.653,2.930
0.726,-0.687,-0.182,-2.014,-6.165,2.808
0.729,-0.688,-0.192,3.296,-5.310,1.892
0.738,-0.700,-0.199,9.399,-4.333,0.671
0.747,-0.718,-0.206,14.771,-4.150,-0.183
0.749,-0.737,-0.209,17.883,-5.249,-0.488
0.752,-0.760,-0.212,18.677,-6.958,0.305
0.763,-0.774,-0.218,17.090,-9.277,2.197
0.765,-0.767,-0.212,12.939,-12.512,4.700
0.759,-0.750,-0.202,7.874,-15.930,7.324
0.752,-0.721,-0.189,4.272,-18.860,8.972
0.746,-0.688,-0.173,3.418,-21.118,9.949
0.738,-0.666,-0.160,5.188,-21.912,10.559
0.721,-0.652,-0.146,8.423,-21.423,10.193
0.715,-0.644,-0.146,12.085,-20.508,9.399
0.718,-0.645,-0.135,15.198,-18.738,8.911
0.724,-0.645,-0.133,16.846,-17.822,7.935
0.729,-0.647,-0.134,17.334,-17.944,7.080
0.736,-0.645,-0.127,16.479,-18.311,6.531
0.749,-0.639,-0.121,14.954,-18.616,6.714
0.754,-0.638,-0.113,12.695,-19.348,6.653
0.747,-0.641,-0.103,10.620,-20.386,5.981
0.736,-0.646,-0.098,9.521,-20.752,5.554
0.734,-0.639,-0.098,8.911,-20.569,5.920
0.695,0.772,1.148,-102.722,40.161,-48.401
0.630,0.762,1.177,-104.431,61.523,-69.336
0.607,0.720,1.156,-104.431,84.534,-88.867
0.607,0.663,1.104,-104.614,106.079,-104.919
0.596,0.572,1.068,-105.347,122.498,-118.835
0.571,0.480,0.998,-112.366,132.141,-131.775
0.532,0.402,0.964,-124.084,138.550,-141.968
0.499,0.339,0.937,-137.878,142.578,-149.597
0.475,0.272,0.904,-153.137,143.188,-153.809
0.463,0.202,0.891,-168.579,141.785,-155.151
0.432,0.150,0.887,-184.570,138.855,-156.372
0.370,0.104,0.897,-200.562,133.240,-160.217
0.270,0.080,0.892,-216.675,125.244,-167.908
0.214,0.042,0.861,-231.140,117.004,-181.641
0.156,-0.049,0.834,-239.075,109.558,-200.195
0.083,-0.208,0.780,-234.985,105.530,-219.788
0.021,-0.422,0.679,-220.764,104.736,-233.887
-0.023,-0.689,0.588,-197.876,106.689,-237.305
-0.048,-0.944,0.499,-171.936,111.938,-234.497
-0.095,-1.182,0.418,-147.827,118.408,-229.675
-0.127,-1.424,0.282,-130.615,125.732,-222.046
-0.143,-1.686,0.089,-123.291,131.592,-215.515
-0.421,-1.720,-0.027,-117.432,138.306,-210.754
-0.303,-2.164,-0.359,-106.445,155.396,-215.576
-0.202,-2.358,-0.594,-87.891,185.120,-216.980
-0.078,-2.545,-0.907,-56.396,190.674,-184.570
0.190,-2.592,-0.938,-30.029,203.003,-160.767
0.328,-2.682,-1.167,-14.954,188.965,-120.789
0.373,-2.655,-1.235,-25.574,164.551,-83.801
0.404,-2.498,-1.198,-60.913,139.343,-49.927
0.419,-2.038,-1.324,-107.056,108.154,-29.724
0.458,-2.360,-1.553,-100.281,76.172,-19.470
0.548,-1.667,-1.781,-37.292,38.086,-10.254
0.499,-1.607,-1.515,7.202,-4.211,-0.183
0.473,-1.431,-1.280,-6.836,-46.936,1.953
0.546,-1.209,-0.902,-47.302,-73.120,-4.150
0.601,-1.127,-0.621,-75.867,-92.834,-10.132
0.627,-0.969,-0.365,-88.501,-111.633,-15.869
0.602,-0.867,-0.127,-89.539,-123.657,-19.531
0.576,-0.836,0.108,-86.182,-126.282,-20.874
0.526,-0.713,0.271,-81.787,-119.995,-21.057
0.486,-0.656,0.394,-71.106,-100.891,-18.494
0.511,-0.584,0.431,-56.763,-72.266,-13.489
0.555,-0.502,0.397,-37.659,-42.969,-7.690
0.575,-0.472,0.321,-17.761,-15.625,-2.258
0.585,-0.484,0.224,-1.282,6.653,1.709
0.601,-0.571,0.105,11.475,20.752,2.014
0.579,-0.646,-0.030,20.935,27.466,-1.526
0.565,-0.791,-0.123,27.893,29.846,-6.165
0.565,-0.898,-0.219,29.297,28.503,-8.850
0.578,-0.970,-0.279,24.902,25.452,-9.155
0.601,-1.007,-0.305,17.639,20.386,-5.676
0.628,-1.016,-0.292,5.981,13.123,-0.244
0.639,-0.990,-0.232,-7.812,3.784,4.517
0.636,-0.953,-0.147,-21.240,-6.348,6.531
0.614,-0.913,-0.064,-31.860,-16.479,5.371
0.583,-0.863,0.026,-37.903,-23.193,2.563
0.572,-0.817,0.099,-38.025,-26.123,-0.610
0.595,-0.798,0.164,-30.884,-25.391,-3.113
0.588,-0.786,0.218,-19.226,-21.057,-4.333
0.594,-0.761,0.242,-7.019,-12.268,-3.723
0.607,-0.757,0.241,4.395,-3.052,-1.343
0.603,-0.754,0.222,14.282,4.761,2.441
0.589,-0.738,0.172,19.287,10.559,4.822
0.568,-0.725,0.103,20.020,13.184,5.493
0.553,-0.723,0.041,18.311,14.526,5.615
0.546,-0.738,-0.014,16.724,15.808,4.944
0.563,-0.763,-0.073,16.296,16.663,3.357
0.584,-0.806,-0.123,16.235,16.602,2.258
0.609,-0.840,-0.146,14.282,14.526,2.319
0.630,-0.866,-0.145,9.216,10.498,3.235
0.643,-0.863,-0.130,1.282,3.723,4.333
0.640,-0.848,-0.093,-7.751,-3.235,4.761
0.626,-0.821,-0.048,-16.357,-9.521,4.578
0.600,-0.793,-0.004,-22.156,-13.916,3.906
0.599,-0.781,0.033,-24.597,-16.235,2.686
0.600,-0.781,0.071,-22.888,-16.968,1.099
0.591,-0.782,0.112,-18.311,-15.869,-0.061
0.582,-0.798,0.142,-11.841,-11.963,-0.183
0.585,-0.815,0.153,-4.395,-5.676,-0.488
0.596,-0.824,0.134,3.174,0.977,0.000
0.608,-0.825,0.094,8.789,7.019,0.793
0.608,-0.819,0.059,11.597,10.803,1.526
0.601,-0.809,0.032,12.695,12.085,2.014
0.599,-0.813,0.006,12.451,11.719,2.991
0.596,-0.817,-0.012,11.108,10.010,3.662
0.589,-0.827,-0.016,9.216,7.629,3.479
0.591,-0.832,-0.028,6.287,4.883,2.808
0.598,-0.833,-0.032,2.441,2.441,2.625
0.600,-0.823,-0.028,-0.793,0.977,2.563
0.601,-0.813,-0.019,-2.991,0.061,2.380
0.603,-0.802,-0.009,-4.517,-0.488,2.136
0.600,-0.793,0.005,-5.127,-0.854,1.404
0.594,-0.787,0.022,-4.761,-1.160,1.038
0.592,-0.788,0.036,-3.662,-1.343,0.793
0.596,-0.794,0.041,-2.502,-1.465,0.854
0.601,-0.801,0.041,-1.953,-1.526,1.648
0.604,-0.807,0.042,-0.977,-1.465,2.319
0.605,-0.813,0.038,0.305,-1.221,2.441
0.607,-0.818,0.034,1.404,-0.305,2.380
0.614,-0.818,0.028,2.014,0.549,2.380
0.616,-0.814,0.030,2.441,1.343,2.441
0.619,-0.805,0.027,1.831,2.441,2.319
0.619,-0.789,0.029,1.038,3.235,2.502
0.611,-0.783,0.024,0.244,2.625,2.380
0.603,-0.773,0.028,-0.793,2.136,1.953
0.595,-0.776,0.029,-0.977,1.160,1.282
0.591,-0.785,0.035,-0.488,0.549,0.488
0.594,-0.802,0.039,0.305,0.305,-0.061
0.600,-0.817,0.036,0.916,0.610,0.000
0.609,-0.823,0.029,0.732,0.732,0.305
0.614,-0.823,0.024,0.183,1.038,0.977
0.609,-0.815,0.020,-0.366,1.099,1.465
0.602,-0.802,0.021,-0.732,1.099,1.953
0.599,-0.792,0.023,-1.221,0.854,2.258
0.596,-0.787,0.026,-1.465,1.099,2.625
0.596,-0.787,0.026,-1.221,1.465,2.380
0.600,-0.790,0.030,-0.977,1.282,2.136
0.593,-0.797,0.031,-0.549,1.038,1.892
0.472,0.939,1.197,-113.708,-68.665,-36.133
0.380,0.886,1.333,-118.225,-66.711,-59.814
0.326,0.805,1.482,-124.268,-58.716,-86.548
0.296,0.671,1.652,-129.150,-44.861,-115.784
0.246,0.491,1.797,-135.071,-25.452,-148.560
0.176,0.261,1.894,-145.203,-1.465,-182.983
0.112,0.052,1.922,-158.691,26.428,-215.637
0.086,-0.147,1.896,-168.274,56.702,-243.774
0.046,-0.397,1.787,-166.138,88.440,-267.578
0.034,-0.670,1.638,-149.902,122.375,-287.537
0.044,-0.977,1.413,-124.023,156.738,-301.025
0.021,-1.310,1.135,-97.229,188.965,-309.448
-0.015,-1.559,0.839,-74.097,214.661,-309.998
0.118,-1.883,0.567,-54.688,231.995,-289.124
0.207,-2.040,0.385,-44.556,236.694,-255.249
0.215,-2.123,0.204,-46.814,231.018,-213.013
0.201,-2.239,-0.003,-60.852,221.863,-171.875
0.159,-2.239,-0.146,-81.116,216.980,-139.648
0.118,-2.218,-0.343,-97.168,214.172,-112.183
0.142,-2.138,-0.508,-106.934,214.294,-88.440
0.209,-1.968,-0.610,-116.089,213.318,-68.115
0.198,-1.825,-0.696,-122.986,207.703,-51.392
0.115,-1.700,-0.758,-123.779,201.050,-44.373
0.048,-1.595,-0.862,-116.516,199.585,-45.044
-0.043,-1.570,-1.162,-102.905,207.825,-49.561
0.231,-1.487,-1.260,-81.482,240.906,-54.260
0.353,-1.333,-1.328,-50.049,252.747,-46.997
0.608,-1.335,-1.490,-11.780,231.140,-25.696
0.801,-1.366,-1.505,11.841,199.219,-8.728
0.966,-1.353,-1.469,11.475,153.992,-2.563
1.060,-1.274,-1.359,-9.705,99.365,-2.502
1.081,-1.155,-1.205,-37.659,42.236,-2.014
0.976,-1.002,-0.981,-55.298,-4.944,1.160
0.845,-0.905,-0.762,-53.894,-36.255,7.385
0.772,-0.821,-0.552,-38.330,-50.598,11.536
0.739,-0.771,-0.369,-17.090,-52.063,12.878
0.744,-0.760,-0.235,3.235,-46.570,13.062
0.770,-0.763,-0.134,17.334,-41.138,13.062
0.774,-0.765,-0.057,21.179,-37.598,13.062
0.760,-0.753,0.014,15.015,-35.706,13.855
0.726,-0.722,0.063,3.357,-34.363,15.320
0.699,-0.672,0.098,-7.568,-31.860,15.991
0.667,-0.625,0.107,-14.648,-27.222,15.564
0.659,-0.568,0.119,-13.855,-19.470,14.221
0.653,-0.526,0.125,-6.104,-9.949,11.719
0.658,-0.533,0.106,5.737,-0.061,9.033
0.676,-0.563,0.072,17.517,9.521,6.226
0.696,-0.594,0.033,23.437,17.151,3.418
0.718,-0.636,-0.010,23.437,22.156,1.343
0.742,-0.675,-0.051,19.470,24.292,1.038
0.761,-0.691,-0.093,13.000,23.926,2.319
0.771,-0.684,-0.126,5.371,21.912,4.456
0.768,-0.666,-0.151,-1.648,18.860,6.348
0.769,-0.645,-0.173,-6.042,15.625,7.324
0.773,-0.620,-0.190,-7.812,12.695,7.568
0.784,-0.596,-0.194,-7.324,10.254,7.446
0.779,-0.577,-0.192,-5.432,7.629,5.737
0.767,-0.567,-0.172,-2.869,5.493,2.991
0.745,-0.555,-0.151,0.793,5.066,-0.305
0.725,-0.561,-0.127,5.981,6.775,-3.357
0.709,-0.605,-0.125,13.306,10.620,-6.531
0.719,-0.658,-0.146,19.958,14.587,-8.667
0.730,-0.712,-0.169,23.743,16.113,-8.423
0.733,-0.753,-0.184,23.315,15.808,-5.615
0.745,-0.773,-0.195,17.273,13.489,-2.441
0.765,-0.760,-0.207,6.775,9.399,1.648
0.771,-0.712,-0.205,-5.066,3.723,5.798
0.756,-0.651,-0.193,-13.672,-1.587,8.606
0.744,-0.613,-0.173,-16.357,-5.493,9.277
0.721,-0.589,-0.151,-13.977,-7.507,8.484
0.707,-0.582,-0.122,-8.667,-7.141,5.493
0.695,-0.613,-0.103,-2.197,-4.761,0.854
0.693,-0.668,-0.098,4.028,-1.343,-2.869
0.715,-0.719,-0.108,8.240,2.686,-4.333
0.733,-0.753,-0.118,8.301,5.493,-3.906
0.745,-0.767,-0.137,4.211,6.775,-2.869
0.756,-0.758,-0.161,-1.831,6.836,-1.282
0.769,-0.739,-0.177,-7.385,5.615,1.282
0.772,-0.711,-0.196,-10.620,3.235,4.333
0.772,-0.680,-0.206,-10.071,0.488,6.897
0.782,-0.648,-0.203,-6.531,-1.404,7.874
0.782,-0.634,-0.195,-1.648,-2.686,6.104
0.770,-0.639,-0.183,4.089,-3.662,3.540
0.762,-0.653,-0.167,8.545,-4.028,2.014
0.759,-0.667,-0.149,10.803,-3.845,1.831
0.749,-0.682,-0.136,10.437,-3.601,2.502
0.742,-0.681,-0.126,7.629,-3.418,3.601
0.745,-0.666,-0.126,3.357,-3.540,4.639
0.742,-0.640,-0.119,-0.793,-4.211,5.920
0.741,-0.615,-0.112,-2.808,-4.456,6.287
0.741,-0.618,-0.104,-2.991,-4.211,5.493
0.748,-0.608,-0.110,-2.747,-3.418,4.761
0.748,-0.589,-0.107,-2.869,-2.991,3.601
0.740,-0.591,-0.102,-1.038,-2.197,1.404
0.736,-0.606,-0.099,2.747,-0.549,-0.488
0.739,-0.624,-0.098,6.409,1.709,-1.892
0.736,-0.645,-0.107,8.423,3.418,-2.502
0.732,-0.661,-0.115,7.568,4.517,-2.686
0.734,-0.675,-0.129,4.700,4.883,-2.502
0.741,-0.681,-0.142,1.160,4.333,-1.953
0.742,-0.675,-0.158,-2.014,3.235,-0.488
0.752,-0.666,-0.174,-3.723,1.404,1.404
0.760,-0.646,-0.176,-4.028,-0.793,2.808
0.753,-0.633,-0.169,-2.991,-2.441,2.808
0.749,-0.627,-0.158,-0.854,-3.479,1.953
0.756,-0.626,-0.141,1.038,-4.089,0.732
0.754,-0.633,-0.124,2.686,-4.333,-0.549
0.739,-0.644,-0.104,4.150,-3.662,-1.770
0.736,-0.664,-0.092,4.761,-2.258,-2.380
0.744,-0.684,-0.094,4.089,-0.366,-2.686
0.747,-0.698,-0.101,2.686,1.770,-2.502
0.749,-0.708,-0.113,1.282,3.418,-2.014
0.755,-0.712,-0.126,-0.244,4.395,-0.732
0.761,-0.702,-0.139,-2.075,4.517,0.732
0.759,-0.684,-0.147,-3.967,4.028,2.014
0.758,-0.670,-0.150,-4.456,3.418,2.808
0.751,-0.661,-0.155,-3.601,2.747,2.747
0.744,-0.653,-0.160,-2.380,2.380,1.953
0.751,-0.650,-0.170,-0.793,2.502,1.160
0.083,1.448,1.187,-125.854,-38.879,15.686
-0.128,1.639,1.353,-138.428,-27.649,1.038
-0.262,1.658,1.443,-150.574,-11.841,-24.963
-0.326,1.602,1.495,-173.462,0.000,-62.927
-0.326,1.476,1.394,-210.083,5.554,-106.934
-0.269,1.319,1.232,-250.549,4.456,-155.701
-0.159,1.099,1.081,-285.889,-3.662,-210.205
0.025,0.774,0.967,-314.453,-15.503,-259.460
0.221,0.422,0.888,-332.886,-19.897,-294.312
0.444,0.142,0.760,-337.158,-12.207,-307.678
0.654,-0.133,0.655,-324.280,0.366,-300.842
0.872,-0.352,0.594,-296.753,9.216,-282.959
1.007,-0.510,0.580,-263.916,13.062,-253.723
1.076,-0.668,0.592,-237.122,12.695,-217.407
1.078,-0.797,0.576,-222.900,7.996,-183.533
1.041,-0.964,0.446,-217.712,-0.305,-156.555
0.954,-1.190,0.247,-218.506,-10.071,-138.428
0.959,-1.341,0.020,-216.797,-14.954,-134.033
1.069,-1.436,-0.224,-205.017,-9.338,-132.629
1.138,-1.583,-0.332,-186.157,-0.977,-125.488
1.431,-1.676,-0.384,-156.433,4.944,-111.145
1.256,-1.580,-0.465,-115.601,-14.038,-97.290
1.336,-1.609,-0.250,-73.730,-22.095,-69.519
1.311,-1.511,-0.136,-41.626,-31.982,-42.969
1.247,-1.331,0.043,-18.677,-43.945,-19.226
1.154,-1.287,0.374,9.216,-59.204,-0.366
1.032,-1.268,0.758,47.363,-85.266,4.333
0.683,-1.395,1.133,88.623,-88.501,9.277
0.568,-1.523,1.185,97.778,-29.846,8.850
0.783,-1.473,0.776,52.185,63.538,-1.709
0.943,-1.247,0.201,-18.982,126.221,-10.376
1.011,-0.893,-0.372,-72.205,147.156,-15.686
1.177,-0.639,-0.817,-89.966,130.981,-10.925
1.218,-0.408,-1.067,-82.825,90.576,-8.606
1.211,-0.241,-1.138,-59.570,46.326,-3.479
1.201,-0.149,-1.095,-27.161,14.099,8.179
1.168,-0.092,-0.921,6.531,-10.193,20.691
1.110,-0.077,-0.637,36.194,-32.166,32.593
1.042,-0.073,-0.360,58.228,-51.392,42.725
1.000,-0.063,-0.085,70.862,-65.247,50.720
0.917,-0.048,0.163,75.439,-74.951,54.382
0.785,-0.017,0.422,75.012,-74.219,52.368
0.762,-0.026,0.625,70.313,-55.481,44.922
0.766,-0.074,0.738,61.646,-27.832,31.494
0.817,-0.141,0.757,46.387,-4.578,16.174
0.891,-0.184,0.716,24.536,8.057,3.052
0.922,-0.194,0.630,0.916,12.085,-6.470
0.951,-0.159,0.495,-18.250,15.076,-13.184
0.987,-0.127,0.357,-29.602,20.752,-16.541
1.026,-0.123,0.229,-31.738,26.794,-17.273
1.057,-0.124,0.115,-28.076,29.480,-15.137
1.074,-0.142,0.043,-22.400,27.954,-10.986
1.067,-0.147,-0.002,-16.785,23.560,-6.348
1.044,-0.149,-0.023,-11.841,17.639,-2.380
1.016,-0.144,-0.022,-7.751,10.986,1.099
0.997,-0.134,0.002,-4.700,4.456,4.822
0.974,-0.130,0.026,-2.930,-1.465,7.935
0.952,-0.126,0.052,-2.563,-8.118,9.705
0.914,-0.120,0.098,-2.869,-14.099,10.193
0.868,-0.120,0.156,-3.662,-14.832,9.644
0.849,-0.126,0.193,-4.150,-8.606,7.080
0.877,-0.135,0.195,-4.700,1.343,2.197
0.916,-0.146,0.164,-6.470,9.216,-2.625
0.944,-0.150,0.124,-9.338,12.695,-7.568
0.981,-0.159,0.090,-11.841,14.099,-12.817
1.016,-0.165,0.057,-12.512,14.526,-15.381
1.034,-0.171,0.027,-10.193,14.587,-14.343
1.042,-0.181,0.009,-5.981,13.611,-11.169
1.047,-0.186,0.005,-1.770,11.841,-8.301
1.041,-0.191,0.016,2.563,8.606,-5.066
1.026,-0.186,0.039,5.737,4.700,-2.258
0.998,-0.176,0.062,8.118,1.587,0.549
0.971,-0.164,0.093,10.315,0.366,2.747
0.953,-0.159,0.123,11.780,0.732,3.357
0.940,-0.159,0.144,10.986,1.404,2.502
0.938,-0.156,0.161,8.057,1.221,1.282
0.947,-0.163,0.163,3.296,0.549,-0.427
0.962,-0.154,0.151,-1.709,-0.732,-1.892
0.961,-0.180,0.149,-4.028,-1.587,-2.014
0.961,-0.169,0.123,-4.822,-1.221,-1.526
0.976,-0.152,0.094,-3.784,0.366,-1.648
0.997,-0.148,0.080,0.977,1.709,-1.709
1.004,-0.154,0.076,7.263,2.075,-1.587
1.001,-0.159,0.099,12.146,2.014,-0.854
0.998,-0.174,0.121,14.282,2.686,0.061
1.001,-0.172,0.141,12.939,3.174,-0.183
1.001,-0.172,0.157,9.521,2.502,-0.488
1.000,-0.163,0.162,5.981,2.258,-0.183
0.993,-0.153,0.161,3.052,2.625,0.244
0.981,-0.148,0.156,0.610,3.296,0.366
0.976,-0.157,0.141,-0.916,4.028,-0.061
0.968,-0.166,0.122,-2.319,4.578,-0.549
0.963,-0.174,0.105,-3.723,5.493,-0.793
0.959,-0.174,0.085,-4.639,6.042,-1.343
0.964,-0.164,0.060,-4.944,6.226,-2.136
0.979,-0.167,0.042,-4.333,6.592,-3.113
0.993,-0.170,0.019,-3.235,6.165,-4.089
1.015,-0.175,-0.001,-1.831,5.310,-3.479
1.024,-0.179,-0.017,-0.427,3.540,-1.892
1.019,-0.179,-0.017,1.526,0.854,0.549
1.006,-0.166,-0.002,4.028,-1.648,2.869
0.999,-0.168,0.023,7.141,-3.174,4.700
0.989,-0.169,0.052,9.460,-4.089,6.104
0.977,-0.168,0.080,10.254,-5.066,6.531
0.967,-0.164,0.109,9.888,-5.737,6.531
0.955,-0.178,0.136,9.460,-5.432,6.104
0.953,-0.171,0.149,8.484,-4.639,4.944
0.957,-0.173,0.157,6.653,-3.479,3.906
0.972,-0.172,0.154,4.883,-2.441,3.296
0.984,-0.164,0.147,3.235,-2.075,3.174
0.986,-0.152,0.144,2.197,-1.770,3.784
0.989,-0.141,0.135,2.380,-1.160,3.723
0.986,-0.138,0.132,2.991,-0.732,3.357
0.981,-0.135,0.130,3.601,0.000,3.479
0.971,-0.141,0.133,3.723,0.671,3.784
0.967,-0.145,0.132,2.747,0.854,3.235
0.961,-0.142,0.131,1.282,0.305,2.686
0.952,-0.136,0.136,0.000,-0.854,2.136
0.944,-0.129,0.143,-0.732,-1.160,1.404
-0.318,1.978,0.553,-14.954,-25.696,-62.012
-0.374,2.036,0.497,-25.513,-18.616,-95.520
-0.393,1.980,0.462,-34.485,-15.198,-126.587
-0.413,1.773,0.513,-42.908,-16.418,-159.424
-0.407,1.414,0.755,-50.903,-23.743,-197.205
-0.364,0.995,1.109,-56.335,-34.119,-236.816
-0.397,0.586,1.450,-62.622,-40.222,-271.667
-0.363,0.232,1.753,-74.158,-28.381,-291.748
-0.245,-0.149,1.991,-82.703,4.578,-299.438
-0.161,-0.588,2.120,-88.196,46.875,-302.002
0.011,-1.226,2.158,-99.731,89.844,-305.847
0.276,-1.872,2.147,-124.634,125.916,-315.552
0.723,-2.323,1.998,-158.813,153.992,-320.923
0.950,-2.588,1.685,-192.017,168.762,-306.824
1.247,-2.568,1.585,-211.060,189.087,-269.592
1.378,-2.446,1.417,-207.886,195.312,-224.426
1.286,-2.279,1.224,-197.998,186.462,-184.448
0.487,-2.862,0.886,-199.280,176.575,-151.672
-0.542,-3.997,-0.381,-269.531,254.211,-178.589
0.249,-3.586,-1.933,-383.972,429.626,-236.572
1.718,-2.896,-2.582,-376.953,397.400,-201.904
2.167,-2.627,-2.409,-280.640,226.929,-139.343
1.558,-1.853,-1.881,-190.674,102.600,-78.247
1.174,-1.434,-1.543,-86.365,70.862,-12.329
0.986,-1.314,-1.282,8.118,72.266,33.142
0.839,-1.083,-1.108,28.137,43.457,50.232
0.786,-0.702,-0.951,-14.709,3.113,62.439
0.660,-0.406,-0.927,-63.721,-22.644,70.068
0.483,-0.210,-1.026,-93.628,-35.400,61.646
0.457,-0.061,-1.069,-97.534,-31.067,41.077
0.526,0.014,-1.059,-67.688,-15.747,23.804
0.704,-0.021,-0.923,-13.306,-1.282,12.329
0.875,-0.124,-0.655,42.786,0.732,6.775
0.925,-0.203,-0.370,83.984,-10.376,10.315
0.993,-0.284,0.038,106.995,-18.494,20.508
0.975,-0.358,0.325,111.938,-27.100,28.320
0.961,-0.392,0.520,96.008,-35.889,31.555
0.932,-0.358,0.584,65.674,-41.626,32.654
0.887,-0.269,0.562,32.715,-43.274,31.555
0.872,-0.176,0.495,7.507,-37.415,27.832
0.874,-0.117,0.413,-5.920,-23.926,22.278
0.859,-0.106,0.318,-12.329,-8.911,15.076
0.837,-0.131,0.214,-16.663,4.333,6.714
0.826,-0.168,0.097,-21.179,14.954,-2.686
0.844,-0.207,-0.032,-26.062,20.569,-11.658
0.862,-0.255,-0.140,-29.175,22.644,-16.174
0.889,-0.290,-0.226,-29.846,22.461,-16.052
0.918,-0.334,-0.276,-27.893,18.311,-14.893
0.934,-0.350,-0.302,-24.780,11.047,-12.268
0.939,-0.365,-0.300,-20.447,3.296,-8.972
0.949,-0.369,-0.281,-13.245,-2.869,-5.737
0.964,-0.381,-0.242,-4.517,-6.714,-2.502
0.969,-0.378,-0.197,2.502,-9.827,1.160
0.977,-0.376,-0.142,5.798,-13.367,4.028
0.981,-0.359,-0.089,5.554,-16.785,5.737
0.976,-0.346,-0.044,4.883,-18.738,6.470
0.978,-0.348,-0.000,4.150,-19.226,6.836
0.976,-0.358,0.035,2.930,-18.005,7.446
0.991,-0.365,0.062,0.183,-16.418,7.996
0.994,-0.358,0.068,-4.272,-15.381,8.728
0.974,-0.333,0.062,-9.399,-16.602,8.606
0.951,-0.299,0.059,-13.428,-17.029,7.996
0.935,-0.262,0.045,-14.221,-15.076,6.958
0.912,-0.241,0.036,-12.024,-11.902,5.615
0.916,-0.229,0.031,-8.606,-8.362,4.150
0.919,-0.226,0.030,-5.249,-4.822,2.197
0.929,-0.245,0.033,-2.136,-2.197,-0.183
0.941,-0.253,0.018,-0.122,-0.061,-1.770
0.958,-0.299,0.018,1.038,1.404,-3.418
0.956,-0.336,-0.002,1.465,2.380,-4.150
0.976,-0.352,-0.008,-0.549,2.625,-4.150
0.999,-0.365,-0.007,-2.930,1.953,-3.113
1.000,-0.364,-0.014,-4.578,-0.305,-2.380
0.987,-0.355,-0.013,-5.371,-2.625,-1.282
0.974,-0.343,-0.004,-5.066,-3.418,0.427
0.963,-0.336,0.005,-3.723,-2.930,1.953
0.951,-0.333,0.014,-2.563,-2.258,2.441
0.951,-0.330,0.014,-2.502,-1.526,2.258
0.953,-0.322,0.004,-3.296,-1.099,1.709
0.959,-0.315,-0.011,-3.906,-1.343,0.854
0.963,-0.311,-0.020,-3.784,-1.831,0.366
0.961,-0.309,-0.025,-3.052,-1.831,0.305
0.960,-0.318,-0.019,-1.465,-2.075,-0.244
0.961,-0.336,-0.008,0.793,-2.136,-0.793
0.966,-0.350,-0.001,2.686,-1.465,-0.610
0.962,-0.359,-0.002,4.456,-0.183,0.122
0.970,-0.351,-0.007,7.080,1.831,0.916
0.971,-0.343,-0.002,10.925,4.150,1.831
0.962,-0.345,0.002,14.587,4.517,2.197
0.958,-0.338,0.005,14.954,5.554,3.235
0.955,-0.332,0.005,12.329,5.066,3.845
0.949,-0.318,0.003,8.484,3.235,3.784
0.941,-0.309,0.001,4.700,0.977,3.296
0.932,-0.296,-0.000,2.380,-0.610,2.930
0.932,-0.288,-0.002,2.380,-0.977,2.686
0.931,-0.296,-0.002,3.479,-0.366,2.258
0.935,-0.311,-0.004,4.028,0.305,1.221
0.943,-0.320,-0.004,4.211,0.244,0.610
0.940,-0.327,-0.001,4.761,-0.061,0.793
0.938,-0.326,-0.000,5.676,-0.183,1.587
0.931,-0.318,0.005,6.653,-1.038,2.319
0.932,-0.315,0.017,7.080,-1.770,2.808
0.939,-0.310,0.026,6.775,-2.075,2.930
0.943,-0.306,0.029,4.211,-2.686,2.930
0.944,-0.297,0.028,0.061,-3.906,2.502
0.947,-0.287,0.027,-2.625,-4.333,2.136
0.947,-0.282,0.022,-3.906,-3.784,1.343
0.949,-0.286,0.018,-3.540,-2.686,0.488
0.955,-0.299,0.018,-2.197,-1.526,-0.244
0.964,-0.316,0.012,-0.610,0.305,-0.916
0.972,-0.329,-0.002,-0.305,1.587,-1.709
0.980,-0.338,-0.014,-0.977,1.465,-1.770
0.976,-0.340,-0.026,-1.892,0.671,-1.099
0.973,-0.335,-0.031,-2.380,0.061,-0.183
0.972,-0.332,-0.029,-1.831,-0.122,0.793
0.969,-0.333,-0.023,-0.488,-0.366,1.526
0.964,-0.332,-0.013,0.916,-0.732,2.075
0.959,-0.334,-0.000,1.892,-0.854,2.930
0.954,-0.334,0.010,1.953,-0.916,3.418
0.314,1.172,1.098,-211.243,35.217,-52.551
0.288,1.246,1.103,-252.014,29.419,-65.735
0.274,1.267,1.014,-291.443,17.944,-79.712
0.279,1.248,0.920,-324.707,1.831,-99.060
0.243,1.214,0.796,-345.764,-13.062,-125.671
0.240,1.133,0.659,-350.647,-23.499,-154.846
0.275,1.019,0.586,-340.271,-28.259,-183.167
0.354,0.839,0.529,-316.528,-23.376,-204.407
0.405,0.568,0.508,-284.729,-11.169,-216.431
0.469,0.311,0.495,-253.723,1.953,-222.900
0.563,0.058,0.422,-228.394,14.954,-225.525
0.598,-0.379,0.362,-207.520,25.635,-232.971
0.688,-0.714,0.259,-192.139,36.865,-243.835
0.862,-1.017,0.192,-178.101,52.307,-248.108
1.066,-1.237,-0.000,-165.039,70.068,-237.854
1.213,-1.233,-0.172,-149.231,83.069,-214.539
1.313,-1.045,-0.353,-133.118,86.853,-174.622
1.251,-0.933,-0.407,-121.094,70.618,-132.385
1.148,-0.865,-0.426,-116.699,36.133,-99.243
0.998,-0.797,-0.398,-115.479,-10.010,-75.439
0.983,-0.867,-0.334,-113.281,-59.570,-60.303
0.661,-0.804,-0.305,-110.901,-105.042,-72.021
0.603,-0.906,-0.228,-97.107,-114.868,-82.458
0.598,-1.087,-0.157,-72.632,-102.173,-89.294
0.721,-1.169,-0.146,-45.898,-69.763,-98.083
0.916,-1.202,-0.202,-21.423,-28.625,-96.985
1.003,-1.152,-0.309,-3.784,2.136,-85.571
1.070,-0.988,-0.379,8.179,17.334,-69.702
1.056,-0.855,-0.405,21.301,17.395,-53.467
1.000,-0.811,-0.362,36.072,8.240,-40.283
0.929,-0.794,-0.297,44.800,-6.165,-33.936
0.886,-0.830,-0.178,46.021,-28.076,-35.767
0.840,-0.833,-0.062,45.654,-49.988,-41.565
0.855,-0.869,0.091,50.415,-51.147,-42.969
0.987,-0.995,0.176,60.425,-38.391,-42.175
1.144,-1.036,0.289,66.345,-28.259,-54.504
1.093,-0.934,0.332,67.139,-23.743,-67.078
1.117,-0.944,0.296,61.584,-8.545,-48.157
1.071,-0.879,0.232,49.072,8.484,-25.513
0.996,-0.792,0.100,34.851,26.428,-8.301
0.950,-0.695,-0.083,21.667,41.260,1.282
0.943,-0.598,-0.255,15.198,49.927,4.883
0.935,-0.527,-0.403,15.930,50.476,5.676
0.992,-0.491,-0.477,19.653,39.429,8.789
0.991,-0.468,-0.451,18.616,18.250,13.306
0.969,-0.433,-0.372,13.184,-5.127,17.029
0.940,-0.396,-0.262,6.042,-24.475,20.996
0.919,-0.344,-0.172,-0.183,-39.551,23.071
0.893,-0.303,-0.097,-2.808,-49.805,23.315
0.888,-0.293,-0.004,-2.319,-54.199,22.583
0.910,-0.261,0.047,-1.038,-53.101,20.752
0.929,-0.268,0.108,1.770,-48.950,17.151
0.902,-0.287,0.146,4.578,-41.992,13.123
0.912,-0.291,0.165,4.700,-32.898,9.277
0.930,-0.311,0.184,2.808,-22.644,5.249
0.943,-0.337,0.172,0.000,-12.024,1.343
0.979,-0.348,0.145,-3.113,-2.563,-0.793
0.989,-0.354,0.109,-6.226,3.418,-0.549
0.975,-0.349,0.077,-8.301,7.751,1.831
0.958,-0.334,0.051,-8.118,11.536,4.272
0.939,-0.328,0.028,-5.981,14.954,5.188
0.929,-0.332,0.002,-3.784,16.846,4.944
0.927,-0.339,-0.029,-2.136,17.212,3.662
0.933,-0.341,-0.055,-0.854,15.747,2.441
0.945,-0.336,-0.066,0.000,13.000,1.892
0.944,-0.331,-0.064,0.610,9.644,1.831
0.939,-0.329,-0.050,0.977,6.348,1.953
0.932,-0.329,-0.036,1.221,4.272,2.563
0.928,-0.326,-0.024,1.465,2.991,2.869
0.927,-0.333,-0.014,1.770,2.502,2.319
0.930,-0.352,-0.006,1.892,2.747,1.587
0.942,-0.364,-0.012,1.343,3.357,0.793
0.953,-0.369,-0.024,0.305,4.395,0.122
0.956,-0.370,-0.034,-0.366,5.005,0.366
0.955,-0.372,-0.035,-0.549,4.639,1.160
0.951,-0.370,-0.036,-0.305,3.479,2.258
0.949,-0.360,-0.042,0.183,2.075,3.784
0.939,-0.350,-0.044,0.671,0.122,4.944
0.935,-0.344,-0.047,1.770,-1.160,5.127
0.942,-0.338,-0.051,3.357,-1.892,4.944
0.947,-0.330,-0.050,4.517,-2.441,4.761
0.951,-0.325,-0.042,5.432,-3.296,4.639
0.950,-0.323,-0.030,5.798,-4.272,4.272
0.947,-0.325,-0.014,5.493,-5.310,3.906
0.941,-0.323,0.000,4.333,-5.859,3.479
0.937,-0.325,0.014,2.991,-5.981,3.540
0.938,-0.329,0.022,2.197,-5.676,3.418
0.941,-0.336,0.023,2.014,-4.395,3.235
0.946,-0.336,0.018,1.770,-2.808,3.052
0.948,-0.332,0.013,2.075,-1.831,2.991
0.953,-0.330,0.012,3.113,-1.221,2.319
0.955,-0.325,0.012,4.395,-0.122,2.075
0.967,-0.316,0.016,5.188,1.465,1.831
0.967,-0.321,0.019,5.310,2.380,1.343
0.959,-0.316,0.015,4.578,3.052,0.610
0.951,-0.316,0.011,3.540,4.211,-0.183
0.942,-0.322,0.002,3.174,5.432,-1.221
0.938,-0.329,-0.007,3.113,6.470,-1.587
0.940,-0.330,-0.012,2.930,6.958,-1.465
0.944,-0.327,-0.017,2.075,6.714,-1.099
0.948,-0.324,-0.020,0.549,5.554,-0.793
0.951,-0.324,-0.020,-1.099,4.211,-0.732
0.952,-0.327,-0.024,-1.465,3.052,-0.366
0.949,-0.335,-0.024,-1.099,2.686,0.488
0.948,-0.343,-0.027,-0.427,2.502,1.160
0.953,-0.341,-0.031,0.488,2.502,1.587
0.953,-0.334,-0.039,1.221,2.136,1.892
0.952,-0.329,-0.044,1.831,1.648,2.014
0.945,-0.324,-0.044,2.502,0.854,2.136
0.939,-0.324,-0.040,3.052,0.366,2.441
0.939,-0.325,-0.036,3.601,0.122,2.686
0.935,-0.320,-0.031,3.784,-0.244,3.174
0.931,-0.313,-0.027,4.089,-0.610,3.662
0.929,-0.307,-0.023,4.395,-0.610,3.479
0.928,-0.304,-0.021,5.310,-0.305,2.625
0.934,-0.310,-0.019,6.592,0.549,2.075
0.946,-0.318,-0.016,8.240,1.892,1.648
0.951,-0.330,-0.016,9.277,2.808,1.587
0.953,-0.344,-0.016,8.545,2.563,1.648
-0.269,1.237,1.279,-69.275,-51.514,-143.311
-0.292,1.139,1.437,-71.899,-39.490,-166.748
-0.259,0.955,1.547,-72.815,-24.170,-187.439
-0.220,0.719,1.646,-70.557,-8.240,-210.999
-0.174,0.424,1.732,-65.491,10.559,-236.938
-0.062,0.096,1.832,-62.988,32.959,-259.094
0.046,-0.243,1.957,-66.162,53.894,-271.790
0.176,-0.566,2.017,-75.562,71.106,-274.597
0.295,-0.899,2.023,-89.050,84.778,-269.104
0.540,-1.150,2.001,-106.689,97.473,-265.503
0.500,-1.401,1.726,-123.718,101.257,-264.832
0.716,-1.511,1.709,-145.996,132.019,-260.986
0.861,-1.642,1.412,-166.077,151.917,-248.474
0.921,-1.670,1.153,-183.838,159.973,-235.657
0.931,-1.573,0.901,-199.402,163.330,-215.454
0.853,-1.428,0.685,-211.914,157.227,-190.125
0.735,-1.256,0.498,-218.994,145.386,-170.471
0.604,-1.135,0.371,-217.590,130.920,-158.203
0.388,-1.071,0.254,-210.144,121.277,-153.320
-0.107,-1.435,0.161,-203.979,128.357,-159.302
-0.488,-2.183,-0.290,-232.056,171.631,-190.674
-0.146,-2.201,-0.983,-295.898,244.080,-249.207
0.470,-1.721,-1.418,-323.486,275.574,-290.710
0.917,-1.418,-1.405,-277.222,246.033,-281.921
1.364,-1.411,-1.168,-185.852,180.115,-214.111
1.261,-1.159,-0.845,-111.633,121.765,-158.813
0.941,-0.917,-0.570,-41.687,106.567,-118.164
0.857,-1.026,-0.433,16.602,104.614,-73.425
0.625,-0.936,-0.382,16.235,85.938,-61.340
0.587,-0.808,-0.320,-26.428,67.566,-65.979
0.657,-0.695,-0.344,-74.097,50.964,-75.195
0.736,-0.600,-0.432,-99.609,50.598,-86.365
0.787,-0.547,-0.496,-101.135,55.969,-91.614
0.836,-0.510,-0.477,-87.280,55.725,-90.393
0.860,-0.524,-0.407,-61.401,51.575,-86.182
0.838,-0.627,-0.296,-30.212,49.500,-81.238
0.826,-0.766,-0.195,-5.737,51.392,-77.332
0.848,-0.873,-0.143,5.066,54.321,-74.768
0.874,-0.948,-0.127,2.869,56.091,-71.899
0.888,-0.973,-0.150,-8.484,55.542,-68.115
0.915,-0.957,-0.194,-23.987,51.575,-61.584
0.910,-0.922,-0.226,-37.659,44.556,-52.856
0.882,-0.865,-0.261,-45.410,35.278,-43.945
0.839,-0.821,-0.275,-47.058,26.794,-34.546
0.814,-0.768,-0.271,-44.373,20.447,-27.832
0.799,-0.715,-0.268,-38.025,16.113,-24.353
0.794,-0.680,-0.268,-29.358,13.977,-22.095
0.809,-0.655,-0.266,-19.287,14.648,-20.386
0.821,-0.653,-0.262,-9.399,16.113,-18.860
0.824,-0.678,-0.258,-3.601,16.235,-17.395
0.835,-0.703,-0.254,-2.563,13.916,-15.869
0.843,-0.721,-0.251,-3.967,9.460,-13.794
0.849,-0.734,-0.239,-5.188,4.700,-11.414
0.842,-0.748,-0.239,-4.883,0.549,-7.874
0.832,-0.741,-0.224,-4.150,-2.441,-4.272
0.831,-0.750,-0.204,-2.686,-4.333,-1.831
0.831,-0.753,-0.180,0.183,-6.226,0.305
0.829,-0.752,-0.153,3.418,-7.080,2.625
0.837,-0.748,-0.126,6.470,-7.202,4.883
0.836,-0.742,-0.099,9.338,-6.836,7.446
0.834,-0.721,-0.081,10.498,-7.141,9.888
0.834,-0.684,-0.067,9.827,-7.568,12.268
0.822,-0.653,-0.061,6.714,-8.301,13.794
0.806,-0.630,-0.053,2.991,-8.911,15.259
0.790,-0.598,-0.051,-0.549,-9.216,15.991
0.778,-0.569,-0.053,-2.502,-8.423,15.808
0.771,-0.548,-0.058,-3.235,-6.409,14.404
0.775,-0.546,-0.066,-3.052,-3.906,11.719
0.780,-0.547,-0.074,-1.526,-1.770,8.423
0.789,-0.569,-0.080,0.427,0.061,5.371
0.796,-0.609,-0.080,2.014,1.526,3.418
0.805,-0.638,-0.084,2.686,1.953,3.113
0.811,-0.655,-0.091,2.869,1.099,4.639
0.815,-0.652,-0.094,2.197,0.122,6.592
0.817,-0.630,-0.095,1.404,-1.221,8.362
0.814,-0.607,-0.095,0.671,-2.441,9.644
0.808,-0.588,-0.090,0.366,-3.296,10.010
0.803,-0.575,-0.081,0.549,-3.296,9.583
0.801,-0.578,-0.075,1.404,-2.747,8.423
0.799,-0.585,-0.074,2.075,-1.648,7.202
0.803,-0.589,-0.078,2.808,-0.793,6.042
0.807,-0.593,-0.078,3.357,-0.366,5.066
0.809,-0.601,-0.076,3.723,-0.183,4.700
0.809,-0.609,-0.076,3.784,0.122,4.517
0.812,-0.615,-0.077,3.418,0.000,4.456
0.818,-0.619,-0.078,3.113,0.122,4.517
0.824,-0.613,-0.084,2.930,0.244,5.127
0.826,-0.604,-0.092,2.563,0.122,6.104
0.823,-0.591,-0.093,1.831,-0.427,6.409
0.816,-0.582,-0.093,1.404,-1.099,6.775
0.803,-0.577,-0.086,1.648,-2.014,6.897
0.796,-0.575,-0.075,2.197,-2.197,6.653
0.791,-0.575,-0.067,2.930,-1.648,6.104
0.799,-0.580,-0.067,3.357,-0.671,5.127
0.810,-0.584,-0.068,3.357,-0.122,4.333
0.815,-0.592,-0.071,3.357,0.488,4.028
0.821,-0.600,-0.075,2.930,1.160,3.967
0.830,-0.604,-0.079,2.075,1.587,4.089
0.835,-0.603,-0.082,0.793,1.038,4.089
0.836,-0.602,-0.085,0.000,0.244,4.822
0.832,-0.598,-0.088,0.488,-0.488,5.554
0.832,-0.586,-0.090,1.648,-0.854,6.836
0.826,-0.574,-0.089,2.686,-1.404,7.690
0.818,-0.562,-0.088,3.906,-1.953,7.935
0.808,-0.553,-0.084,4.333,-2.136,7.874
0.812,-0.548,-0.081,4.761,-1.953,7.263
0.798,-0.551,-0.077,4.883,-1.770,6.409
0.797,-0.553,-0.080,3.662,-1.526,6.165
0.802,-0.555,-0.078,2.075,-1.465,5.249
0.810,-0.560,-0.076,0.549,-1.587,4.150
0.817,-0.566,-0.078,-0.183,-1.587,3.296
0.824,-0.574,-0.079,-0.671,-1.587,2.563
0.828,-0.579,-0.073,-0.244,-1.648,2.380
0.831,-0.591,-0.062,1.038,-1.282,2.686
0.835,-0.595,-0.052,2.563,-0.916,3.052
0.836,-0.596,-0.043,3.113,0.000,3.540
0.833,-0.600,-0.040,2.869,0.793,4.333
0.836,-0.593,-0.048,2.136,1.526,5.188
0.868,-0.592,-0.050,1.221,1.892,5.310
0.881,-1.544,-0.660,-44.983,0.061,-225.464
0.971,-1.776,-0.459,19.531,-1.587,-188.904
0.902,-1.875,-0.392,59.937,4.517,-151.794
0.978,-1.946,-0.293,68.298,9.888,-124.329
0.954,-1.828,-0.337,50.781,-4.333,-114.807
0.891,-1.787,-0.391,24.170,-18.127,-101.135
1.172,-2.210,-0.425,-2.563,-23.315,-86.914
0.826,-1.797,-0.321,-33.875,-42.603,-129.700
0.889,-1.777,-0.241,-54.504,-56.458,-160.950
0.997,-1.722,-0.080,-54.993,-56.458,-156.006
1.103,-1.662,0.065,-33.997,-44.312,-131.897
1.189,-1.573,0.138,6.653,-27.100,-95.947
1.104,-1.443,0.194,52.246,-2.258,-51.758
0.991,-1.254,0.063,79.041,30.579,-11.597
0.988,-1.056,-0.174,80.505,59.937,17.395
0.999,-0.864,-0.427,61.890,68.237,33.997
0.970,-0.682,-0.571,35.950,52.063,43.457
0.979,-0.518,-0.581,20.264,23.560,50.415
0.956,-0.411,-0.498,17.700,-4.761,55.054
0.878,-0.347,-0.378,21.057,-28.809,56.091
0.844,-0.283,-0.275,22.827,-46.143,55.054
0.827,-0.261,-0.145,24.719,-57.068,49.316
0.801,-0.246,-0.051,21.790,-63.843,41.748
0.804,-0.227,0.034,14.343,-65.735,33.936
0.822,-0.210,0.096,7.446,-60.547,27.161
0.832,-0.212,0.148,4.578,-50.842,20.813
0.847,-0.246,0.184,6.042,-40.039,14.465
0.857,-0.288,0.203,9.888,-28.076,9.949
0.878,-0.335,0.208,15.564,-15.259,7.324
0.888,-0.387,0.201,20.569,-5.066,5.188
0.906,-0.434,0.195,22.339,1.709,4.089
0.919,-0.458,0.176,19.348,4.700,3.967
0.927,-0.466,0.159,12.268,5.432,4.700
0.920,-0.463,0.129,4.028,5.676,5.920
0.922,-0.450,0.086,-3.296,7.141,6.958
0.924,-0.430,0.042,-8.179,10.071,7.996
0.921,-0.408,0.002,-10.010,12.146,8.240
0.924,-0.390,-0.024,-8.728,12.817,8.789
0.934,-0.378,-0.042,-6.165,11.169,9.155
0.923,-0.362,-0.055,-4.456,7.996,9.949
0.920,-0.344,-0.057,-3.052,4.517,10.498
0.911,-0.342,-0.052,-2.136,1.770,10.254
0.885,-0.351,-0.045,-1.282,0.061,8.545
0.877,-0.366,-0.046,-0.732,0.610,7.324
0.884,-0.382,-0.050,-0.244,2.869,5.676
0.907,-0.396,-0.055,0.549,5.127,4.150
0.922,-0.408,-0.060,0.854,5.554,3.357
0.929,-0.419,-0.057,0.000,4.395,2.991
0.938,-0.427,-0.053,-1.526,2.441,2.686
0.944,-0.430,-0.055,-2.563,1.038,3.784
0.938,-0.426,-0.051,-2.625,0.000,5.249
0.930,-0.408,-0.056,-2.197,-0.854,5.981
0.928,-0.391,-0.065,-1.587,-1.526,5.676
0.927,-0.376,-0.072,-1.099,-2.319,4.822
0.923,-0.355,-0.075,-0.244,-3.357,4.700
0.912,-0.341,-0.072,1.038,-4.517,4.822
0.903,-0.342,-0.059,2.625,-5.493,4.150
0.905,-0.349,-0.042,4.333,-5.310,2.686
0.910,-0.368,-0.029,5.920,-4.333,1.526
0.918,-0.394,-0.012,6.714,-3.235,0.916
0.922,-0.413,0.003,6.470,-2.991,0.671
0.932,-0.425,0.017,5.310,-3.052,1.343
0.937,-0.433,0.028,3.784,-3.296,2.197
0.938,-0.436,0.036,2.136,-3.296,2.747
0.945,-0.429,0.038,0.793,-2.625,3.479
0.952,-0.422,0.029,0.183,-1.587,3.784
0.953,-0.411,0.017,-0.305,-0.366,3.784
0.954,-0.399,-0.000,0.000,0.916,4.028
0.948,-0.393,-0.014,0.244,1.404,4.028
0.944,-0.382,-0.028,0.366,1.221,3.845
0.944,-0.371,-0.033,1.282,0.671,3.601
0.939,-0.362,-0.031,2.563,-0.183,3.906
0.929,-0.355,-0.021,3.357,-0.671,4.272
0.920,-0.357,-0.007,4.395,-0.977,4.517
0.915,-0.364,0.003,4.761,-0.793,4.761
0.914,-0.371,0.008,3.662,-0.427,4.517
0.915,-0.369,0.009,1.892,-0.244,3.845
0.913,-0.369,0.009,0.427,0.244,3.357
0.909,-0.370,0.007,-0.366,0.793,2.869
0.914,-0.370,0.001,-0.488,1.648,2.258
0.917,-0.380,-0.008,-0.183,2.869,1.892
0.923,-0.385,-0.015,-0.244,3.296,1.709
0.932,-0.386,-0.024,-0.488,3.113,1.526
0.937,-0.388,-0.034,-0.427,2.808,1.770
0.941,-0.383,-0.045,-0.183,2.563,2.014
0.947,-0.375,-0.053,0.122,2.197,2.319
0.947,-0.369,-0.057,0.610,1.160,2.808
0.944,-0.363,-0.058,1.160,-0.061,3.418
0.931,-0.356,-0.050,2.136,-1.160,4.333
0.923,-0.354,-0.037,3.174,-2.014,4.456
0.916,-0.353,-0.024,4.028,-2.258,4.211
0.910,-0.359,-0.014,4.517,-2.014,3.662
0.907,-0.370,-0.003,4.333,-1.465,3.174
0.912,-0.371,-0.003,3.540,-1.038,2.380
0.916,-0.369,-0.005,2.869,-0.671,1.709
0.921,-0.369,-0.008,2.380,-0.732,1.099
0.930,-0.364,-0.008,2.319,-0.854,0.793
0.937,-0.365,-0.009,2.686,-0.916,0.854
0.941,-0.369,-0.010,3.174,-0.549,1.099
0.943,-0.380,-0.013,3.174,-0.244,1.221
0.945,-0.384,-0.022,2.869,0.183,1.160
0.944,-0.386,-0.032,2.441,0.488,1.221
0.941,-0.381,-0.042,2.197,0.061,1.282
0.944,-0.375,-0.052,2.502,-0.488,1.099
0.944,-0.377,-0.054,3.784,-0.793,1.160
0.942,-0.382,-0.047,5.310,-1.038,1.587
0.942,-0.384,-0.034,6.592,-1.648,1.953
