aX,aY,aZ,gX,gY,gZ
1.839,0.149,0.913,-51.453,142.822,63.110
2.260,0.375,0.821,-12.085,143.555,55.054
2.599,0.582,0.667,33.203,122.009,38.879
2.818,0.781,0.488,73.547,87.524,17.578
2.938,0.931,0.290,96.741,56.641,-5.920
2.984,1.087,0.171,99.792,43.945,-37.415
2.909,1.201,0.112,92.834,45.898,-78.064
2.705,1.191,0.079,89.294,52.185,-124.451
2.318,1.130,0.005,95.093,54.199,-167.969
1.808,0.991,-0.171,113.647,55.786,-203.369
1.338,0.880,-0.394,142.517,64.575,-227.478
0.935,0.846,-0.691,167.664,77.393,-236.511
0.647,0.839,-1.015,185.486,90.393,-235.413
0.487,0.866,-1.298,191.650,101.196,-230.103
0.270,0.910,-1.632,185.303,105.408,-227.112
0.010,0.807,-1.909,175.659,100.586,-229.858
-0.254,0.602,-2.131,159.851,88.623,-234.802
-0.536,0.312,-2.235,130.737,72.693,-241.821
-0.731,0.086,-2.224,86.853,55.664,-245.972
-0.865,-0.094,-2.075,43.396,35.034,-242.126
-0.895,-0.198,-1.862,14.587,5.859,-226.929
-0.865,-0.267,-1.608,3.601,-29.053,-204.651
-0.791,-0.293,-1.396,6.470,-64.209,-180.054
-0.746,-0.314,-1.253,18.005,-91.858,-156.799
-0.777,-0.337,-1.199,33.569,-105.347,-138.062
-0.869,-0.404,-1.205,44.373,-103.210,-127.197
-1.091,-0.530,-1.259,45.227,-88.318,-126.099
-1.449,-0.712,-1.322,34.790,-62.561,-138.672
-1.843,-1.027,-1.415,14.893,-32.410,-161.255
-1.758,-1.427,-1.370,-14.832,0.427,-167.725
-1.231,-1.499,-1.062,-59.204,30.762,-123.901
-0.712,-1.175,-0.734,-90.759,38.940,-42.664
-0.226,-0.801,-0.455,-75.806,25.208,25.574
0.198,-0.538,-0.430,-22.888,-12.451,61.584
0.532,-0.358,-0.485,32.837,-59.204,70.618
0.695,-0.332,-0.553,65.430,-94.604,58.350
0.672,-0.415,-0.598,70.313,-110.840,32.593
0.523,-0.561,-0.584,52.673,-103.210,2.686
0.381,-0.696,-0.546,24.048,-70.984,-24.536
0.228,-0.759,-0.524,-1.465,-27.527,-42.847
0.132,-0.812,-0.529,-13.672,13.000,-49.194
0.122,-0.840,-0.567,-11.230,42.297,-41.626
0.174,-0.797,-0.647,1.038,54.810,-23.010
0.251,-0.729,-0.744,18.372,50.232,1.221
0.363,-0.645,-0.828,36.682,34.241,24.780
0.469,-0.577,-0.907,50.903,14.404,40.771
0.544,-0.512,-0.976,56.824,-2.625,46.265
0.608,-0.451,-1.013,52.185,-13.428,39.124
0.597,-0.433,-1.021,39.001,-18.127,23.010
0.523,-0.475,-0.980,21.912,-15.259,3.784
0.432,-0.518,-0.923,6.226,-4.822,-9.888
0.363,-0.560,-0.879,-3.723,7.141,-15.564
0.316,-0.593,-0.826,-8.240,15.137,-16.541
0.280,-0.625,-0.795,-7.568,16.235,-14.709
0.263,-0.656,-0.776,-2.747,12.573,-9.705
0.265,-0.660,-0.754,1.709,6.897,-3.906
0.305,-0.631,-0.723,4.761,2.136,3.052
0.340,-0.584,-0.696,7.690,-0.488,8.423
0.349,-0.559,-0.683,11.169,-1.770,10.071
0.344,-0.544,-0.695,13.794,-0.854,9.094
0.352,-0.539,-0.701,15.015,3.479,7.324
0.337,-0.537,-0.724,15.076,7.690,4.150
0.323,-0.535,-0.756,15.564,10.132,1.831
0.341,-0.547,-0.782,15.930,11.108,2.991
0.340,-0.545,-0.802,15.503,10.010,4.028
0.347,-0.552,-0.807,15.930,7.446,4.761
0.360,-0.558,-0.812,17.212,3.418,7.324
0.373,-0.554,-0.814,17.700,-0.671,9.155
0.383,-0.552,-0.806,17.212,-3.906,9.949
0.387,-0.543,-0.794,14.893,-5.859,10.010
0.396,-0.527,-0.773,11.658,-5.493,9.338
0.410,-0.516,-0.760,8.484,-2.625,7.690
0.425,-0.522,-0.748,7.385,0.061,5.310
0.428,-0.528,-0.749,7.751,1.770,2.563
0.431,-0.526,-0.757,8.911,2.991,0.610
0.430,-0.528,-0.767,10.498,3.906,-0.916
0.423,-0.529,-0.786,11.841,4.456,-2.014
0.418,-0.533,-0.805,12.146,5.127,-2.380
0.412,-0.535,-0.821,12.085,5.615,-2.319
0.406,-0.536,-0.828,11.230,5.615,-2.258
0.396,-0.536,-0.834,11.047,4.822,-1.953
0.385,-0.538,-0.844,10.742,3.235,-1.709
0.374,-0.536,-0.848,9.949,1.770,-1.648
0.368,-0.539,-0.853,8.362,1.282,-1.953
0.364,-0.542,-0.850,6.714,1.038,-2.563
0.354,-0.541,-0.844,4.700,0.671,-3.418
0.354,-0.538,-0.831,3.296,0.488,-4.272
0.356,-0.535,-0.819,2.258,0.488,-5.554
0.349,-0.541,-0.804,1.953,0.732,-6.653
0.339,-0.541,-0.799,1.953,1.221,-6.775
0.330,-0.534,-0.798,2.136,1.892,-5.615
0.329,-0.528,-0.791,1.343,2.869,-4.272
0.328,-0.526,-0.788,0.793,3.052,-2.747
0.326,-0.530,-0.786,1.404,2.319,-1.160
0.329,-0.525,-0.781,2.075,0.916,0.732
0.339,-0.523,-0.783,2.686,-0.122,2.380
0.344,-0.525,-0.785,3.662,-0.183,3.479
0.348,-0.527,-0.783,4.089,0.183,3.967
0.350,-0.524,-0.783,3.967,0.854,4.089
0.353,-0.521,-0.785,4.456,1.221,3.967
0.354,-0.520,-0.788,4.944,1.221,3.723
0.357,-0.512,-0.794,5.066,1.587,3.540
0.363,-0.510,-0.797,6.165,2.258,3.357
0.364,-0.515,-0.798,7.141,2.258,2.686
0.362,-0.517,-0.804,7.935,1.709,2.197
0.362,-0.518,-0.805,8.545,1.526,1.831
0.359,-0.520,-0.809,8.789,1.465,1.831
0.359,-0.517,-0.820,8.484,1.587,2.197
0.359,-0.519,-0.827,7.812,2.380,2.747
0.365,-0.516,-0.835,6.470,2.991,3.296
0.372,-0.508,-0.840,5.005,3.418,3.479
0.380,-0.503,-0.841,4.089,2.991,3.052
0.384,-0.504,-0.837,3.357,1.770,2.136
0.381,-0.509,-0.835,2.747,0.305,1.221
0.379,-0.510,-0.827,2.380,-0.671,0.977
0.377,-0.514,-0.819,1.831,-1.099,0.610
0.376,-0.518,-0.815,1.648,-0.977,0.244
0.374,-0.516,-0.812,1.770,-0.671,-0.549
0.370,-0.517,-0.812,2.319,-0.671,-0.977
0.523,-0.821,1.340,8.179,-1.282,29.480
0.593,-0.687,1.465,22.339,20.752,38.757
0.732,-0.559,1.522,44.250,47.119,49.377
0.923,-0.404,1.529,70.618,66.650,58.899
1.160,-0.129,1.500,97.168,75.745,65.491
1.520,0.334,1.427,121.643,82.031,68.726
1.907,0.790,1.238,147.156,91.309,59.692
2.310,1.156,0.978,178.284,100.586,30.945
2.569,1.407,0.649,207.703,108.154,-13.489
2.635,1.543,0.273,229.370,111.755,-65.735
2.625,1.605,-0.063,240.845,111.389,-118.286
2.485,1.574,-0.304,247.437,118.103,-158.020
2.235,1.479,-0.632,252.197,129.028,-187.195
1.935,1.417,-1.068,257.507,130.371,-212.402
1.516,1.304,-1.573,265.015,129.211,-234.253
1.044,1.026,-2.096,269.653,126.404,-250.488
0.667,0.675,-2.413,255.554,118.103,-255.554
0.406,0.425,-2.409,216.309,93.872,-254.822
0.186,0.423,-2.248,165.527,49.133,-253.113
-0.193,0.437,-1.977,139.160,-7.202,-247.864
-0.636,0.292,-1.986,136.719,-47.363,-237.000
-0.946,0.001,-2.134,139.038,-48.035,-222.412
-1.037,-0.254,-2.307,122.803,-18.555,-198.120
-0.916,-0.401,-2.347,88.379,10.986,-170.288
-0.807,-0.452,-2.218,51.147,17.029,-147.400
-0.725,-0.462,-2.042,26.428,-8.057,-128.540
-0.650,-0.478,-1.795,15.137,-45.105,-110.840
-0.566,-0.460,-1.526,11.047,-83.618,-92.712
-0.503,-0.433,-1.289,9.460,-115.295,-76.599
-0.491,-0.424,-1.089,9.399,-131.287,-66.345
-0.508,-0.489,-0.923,9.460,-127.991,-63.232
-0.565,-0.626,-0.796,4.944,-108.948,-63.965
-0.618,-0.750,-0.720,-5.493,-76.782,-62.744
-0.555,-0.852,-0.670,-17.883,-35.522,-56.030
-0.364,-0.918,-0.626,-24.292,0.916,-40.466
-0.103,-0.900,-0.607,-20.508,21.912,-17.944
0.149,-0.827,-0.613,-10.010,23.743,2.747
0.344,-0.724,-0.658,1.709,12.329,18.433
0.505,-0.627,-0.676,10.132,-1.953,29.297
0.629,-0.523,-0.689,14.221,-13.000,34.424
0.735,-0.446,-0.708,15.076,-20.020,30.579
0.772,-0.427,-0.724,15.320,-23.804,19.043
0.740,-0.478,-0.741,13.245,-24.658,3.906
0.667,-0.525,-0.736,8.545,-21.362,-7.812
0.573,-0.533,-0.715,2.563,-14.160,-15.259
0.487,-0.544,-0.687,-0.671,-5.554,-18.921
0.407,-0.564,-0.673,-0.122,-0.305,-20.508
0.324,-0.580,-0.672,2.625,3.540,-17.700
0.290,-0.585,-0.680,4.639,7.568,-10.010
0.302,-0.580,-0.671,5.981,10.071,-0.610
0.346,-0.563,-0.661,8.667,9.949,6.836
0.413,-0.555,-0.664,12.695,7.751,11.169
0.505,-0.561,-0.672,15.747,4.517,13.184
0.560,-0.554,-0.674,17.273,0.183,11.902
0.564,-0.556,-0.665,17.883,-2.930,6.958
0.544,-0.584,-0.668,18.188,-2.319,2.563
0.520,-0.593,-0.675,16.602,2.502,-0.366
0.517,-0.593,-0.680,14.526,9.583,-2.197
0.505,-0.582,-0.693,12.512,14.954,-2.686
0.510,-0.577,-0.691,13.916,15.747,-2.441
0.417,-0.577,-0.738,17.883,11.719,-2.808
0.433,-0.570,-0.757,19.775,11.047,0.488
0.448,-0.562,-0.789,20.020,11.230,5.798
0.471,-0.556,-0.806,19.531,10.498,7.507
0.499,-0.550,-0.830,19.409,7.629,6.897
0.511,-0.552,-0.839,18.066,4.150,6.287
0.516,-0.544,-0.835,14.893,0.977,4.456
0.505,-0.542,-0.821,11.902,-1.953,2.319
0.489,-0.543,-0.801,8.667,-3.845,0.183
0.471,-0.542,-0.776,6.042,-5.310,-1.038
0.460,-0.543,-0.740,3.845,-6.348,-0.916
0.458,-0.537,-0.704,3.784,-7.385,0.183
0.453,-0.537,-0.684,5.249,-8.301,1.343
0.446,-0.548,-0.681,6.958,-8.728,2.441
0.450,-0.560,-0.687,7.324,-7.385,3.540
0.461,-0.557,-0.694,6.409,-4.333,4.395
0.487,-0.542,-0.707,5.188,-1.831,5.005
0.507,-0.526,-0.720,5.127,-0.854,4.761
0.518,-0.515,-0.738,5.493,-1.099,3.174
0.512,-0.522,-0.753,6.104,-1.831,0.916
0.500,-0.531,-0.756,5.493,-2.136,-1.282
0.486,-0.535,-0.747,3.967,-1.526,-2.686
0.468,-0.547,-0.743,3.174,-1.099,-3.479
0.454,-0.558,-0.737,3.296,-0.916,-3.174
0.450,-0.562,-0.729,3.540,-0.427,-2.319
0.451,-0.566,-0.725,4.333,0.000,-0.977
0.455,-0.563,-0.728,5.554,0.244,0.793
0.463,-0.557,-0.734,6.165,0.916,2.319
0.473,-0.550,-0.741,6.470,2.014,3.357
0.487,-0.527,-0.743,6.104,3.357,3.784
0.492,-0.517,-0.750,5.554,4.333,2.991
0.487,-0.515,-0.757,4.517,4.700,1.770
0.484,-0.512,-0.754,2.441,5.371,0.427
0.475,-0.510,-0.749,0.793,6.165,-1.099
0.473,-0.510,-0.746,-0.122,6.836,-2.197
0.476,-0.519,-0.746,0.244,6.897,-2.136
0.478,-0.537,-0.746,0.610,6.348,-1.770
0.477,-0.547,-0.744,0.916,5.432,-1.648
0.473,-0.552,-0.741,1.709,4.395,-1.099
0.470,-0.552,-0.739,2.686,3.296,-0.183
0.471,-0.545,-0.743,3.479,2.502,0.916
0.471,-0.534,-0.745,4.028,2.686,2.319
0.471,-0.520,-0.746,3.784,3.479,2.747
0.472,-0.513,-0.750,3.601,4.700,2.502
0.470,-0.513,-0.752,3.174,5.310,1.892
0.469,-0.519,-0.748,2.319,5.432,1.221
0.469,-0.529,-0.743,2.319,4.639,0.793
0.463,-0.540,-0.741,2.869,3.235,0.610
0.464,-0.546,-0.739,3.113,2.197,0.732
0.471,-0.541,-0.737,3.296,2.014,1.343
0.479,-0.535,-0.737,3.479,2.380,1.892
0.482,-0.529,-0.738,3.784,2.258,2.136
0.485,-0.523,-0.748,3.784,1.831,2.258
0.484,-0.516,-0.755,3.418,2.075,2.747
0.484,-0.514,-0.756,2.197,2.991,2.563
0.486,-0.517,-0.752,1.343,3.052,1.770
0.489,-0.517,-0.744,0.854,2.808,1.099
0.487,-0.521,-0.737,0.854,1.831,0.427
0.478,-0.523,-0.734,1.038,1.099,0.183
0.626,-0.934,1.138,-60.791,15.320,7.507
0.634,-0.849,1.381,-65.308,26.550,10.925
0.634,-0.742,1.620,-59.021,43.335,16.785
0.651,-0.544,1.762,-38.574,61.768,24.048
0.718,-0.337,1.826,-3.784,81.299,32.349
0.801,-0.109,1.781,40.344,99.731,40.344
0.958,0.177,1.615,88.562,119.507,49.316
1.215,0.398,1.345,134.888,142.334,60.120
1.539,0.652,0.998,171.692,165.405,62.744
2.002,1.040,0.594,196.838,183.167,46.814
2.341,1.380,0.192,214.966,185.120,4.883
2.471,1.480,-0.162,231.445,167.297,-58.777
2.337,1.532,-0.574,238.831,139.099,-121.521
2.103,1.368,-0.884,233.765,131.775,-162.109
1.944,1.207,-1.046,220.459,138.062,-190.063
1.726,1.141,-1.243,207.092,130.676,-211.609
1.425,1.072,-1.416,204.529,117.493,-228.760
0.967,0.948,-1.700,210.388,101.685,-242.371
0.472,0.661,-2.043,217.346,89.539,-248.657
0.115,0.434,-2.407,211.792,86.853,-244.507
-0.182,0.010,-2.544,191.467,79.651,-232.300
-0.340,-0.236,-2.481,158.386,48.706,-214.111
-0.477,-0.241,-2.224,113.953,2.808,-195.679
-0.572,-0.159,-1.921,84.106,-41.626,-176.697
-0.592,-0.198,-1.734,77.698,-71.533,-155.579
-0.559,-0.293,-1.612,80.444,-79.224,-134.888
-0.524,-0.329,-1.507,77.087,-74.646,-118.713
-0.474,-0.344,-1.406,68.909,-67.383,-105.713
-0.401,-0.407,-1.310,61.951,-63.293,-94.971
-0.366,-0.443,-1.251,55.420,-60.547,-84.106
-0.341,-0.487,-1.222,50.171,-57.922,-73.547
-0.322,-0.562,-1.216,46.753,-55.786,-64.453
-0.326,-0.660,-1.213,40.588,-50.903,-59.448
-0.329,-0.747,-1.176,29.236,-41.992,-56.396
-0.312,-0.833,-1.120,15.625,-30.945,-52.063
-0.219,-0.908,-1.036,3.113,-20.264,-45.837
-0.093,-0.921,-0.956,-4.700,-13.306,-35.950
0.083,-0.863,-0.870,-5.493,-11.841,-21.667
0.277,-0.780,-0.802,-1.282,-15.869,-5.676
0.423,-0.664,-0.767,3.601,-23.437,8.179
0.557,-0.550,-0.725,8.057,-31.677,17.517
0.638,-0.461,-0.709,11.902,-37.781,19.531
0.679,-0.415,-0.704,13.916,-40.588,14.954
0.665,-0.420,-0.724,13.794,-38.635,6.653
0.630,-0.457,-0.736,10.010,-31.311,-2.502
0.590,-0.478,-0.722,3.418,-20.935,-9.216
0.541,-0.479,-0.711,-2.319,-12.268,-13.855
0.519,-0.493,-0.680,-5.920,-5.310,-15.320
0.481,-0.504,-0.652,-6.226,-2.075,-15.137
0.432,-0.515,-0.635,-3.601,-1.221,-14.526
0.381,-0.536,-0.622,-0.122,-0.183,-13.550
0.345,-0.544,-0.621,2.808,0.916,-12.207
0.329,-0.562,-0.629,4.700,3.174,-9.949
0.346,-0.562,-0.634,5.981,6.287,-7.507
0.383,-0.566,-0.642,7.751,8.789,-5.188
0.425,-0.587,-0.658,11.108,9.277,-2.747
0.462,-0.581,-0.682,13.977,8.118,-0.183
0.501,-0.568,-0.716,15.930,8.179,3.540
0.542,-0.562,-0.745,15.991,9.033,6.653
0.567,-0.545,-0.757,14.648,9.216,7.324
0.567,-0.532,-0.766,12.939,8.728,6.348
0.554,-0.523,-0.772,11.169,8.057,5.066
0.536,-0.514,-0.767,8.484,7.263,3.662
0.519,-0.508,-0.754,5.859,6.653,2.563
0.505,-0.510,-0.734,3.723,6.165,1.953
0.495,-0.505,-0.716,2.686,5.737,1.587
0.494,-0.503,-0.710,2.930,5.188,2.075
0.507,-0.507,-0.703,4.456,4.639,3.540
0.521,-0.504,-0.701,5.859,3.296,4.456
0.532,-0.498,-0.700,7.446,1.465,5.188
0.540,-0.497,-0.705,9.338,0.122,5.737
0.549,-0.497,-0.709,10.681,-1.160,5.493
0.543,-0.502,-0.723,12.024,-2.136,5.005
0.539,-0.513,-0.734,12.695,-2.747,4.456
0.534,-0.526,-0.736,12.268,-3.052,3.357
0.526,-0.534,-0.738,11.047,-2.808,2.563
0.525,-0.539,-0.739,9.521,-2.441,2.014
0.525,-0.538,-0.740,8.057,-2.258,1.465
0.527,-0.529,-0.741,7.202,-2.197,1.038
0.531,-0.517,-0.738,6.775,-2.258,1.282
0.537,-0.508,-0.740,6.775,-2.136,1.465
0.533,-0.504,-0.746,6.775,-2.197,1.038
0.527,-0.507,-0.751,6.592,-2.075,0.610
0.519,-0.509,-0.754,6.104,-1.526,-0.061
0.511,-0.507,-0.756,5.737,-0.610,-0.427
0.510,-0.511,-0.758,5.371,-0.061,-0.671
0.512,-0.524,-0.758,4.700,0.488,-0.977
0.513,-0.529,-0.756,3.601,0.793,-0.977
0.515,-0.521,-0.746,2.197,0.977,-0.610
0.519,-0.509,-0.741,1.648,1.038,-0.305
0.522,-0.500,-0.739,1.892,0.916,-0.305
0.524,-0.491,-0.739,2.380,0.671,-0.061
0.520,-0.480,-0.731,2.258,0.427,-0.183
0.515,-0.479,-0.728,2.441,0.183,-0.854
0.505,-0.482,-0.731,2.686,0.244,-0.916
0.501,-0.488,-0.731,2.563,0.977,-0.977
0.501,-0.498,-0.731,2.014,2.075,-0.793
0.500,-0.500,-0.731,2.075,2.686,-0.244
0.500,-0.505,-0.732,1.953,3.418,0.000
0.500,-0.510,-0.730,1.953,4.089,0.122
0.501,-0.505,-0.730,2.014,4.761,0.488
0.506,-0.496,-0.731,2.258,5.432,0.793
0.512,-0.489,-0.741,2.869,5.554,0.977
0.518,-0.480,-0.751,3.174,5.310,1.282
0.526,-0.477,-0.756,2.625,5.615,1.282
0.529,-0.482,-0.756,1.770,4.944,0.732
0.528,-0.490,-0.753,1.404,3.723,-0.061
0.524,-0.497,-0.750,1.221,2.625,-0.732
0.518,-0.506,-0.745,0.977,1.709,-1.221
0.514,-0.508,-0.737,0.916,1.099,-0.916
0.515,-0.500,-0.727,0.610,1.343,-0.427
0.521,-0.498,-0.725,0.977,1.953,0.000
0.518,-0.495,-0.727,1.709,1.953,0.061
0.513,-0.499,-0.724,1.770,1.526,-0.305
0.506,-0.499,-0.722,2.075,1.648,-0.427
0.504,-0.487,-0.726,2.808,2.319,0.122
0.510,-0.484,-0.737,3.418,2.686,0.549
0.517,-0.491,-0.746,3.235,2.808,0.610
0.517,-0.492,-0.747,2.380,2.930,0.244
0.811,-1.091,1.119,-13.550,-11.780,9.644
0.803,-1.090,1.394,-9.277,-12.146,16.174
0.762,-0.961,1.656,-0.183,-12.268,23.987
0.734,-0.781,1.840,14.832,-3.540,33.569
0.791,-0.603,1.977,36.316,18.555,42.786
0.884,-0.367,2.046,60.364,46.570,46.570
1.026,-0.071,2.039,85.754,74.280,44.250
1.237,0.298,1.934,113.159,98.633,40.405
1.503,0.682,1.729,143.127,120.911,34.485
1.777,1.035,1.414,174.744,141.541,21.851
2.057,1.289,1.038,205.017,158.752,-6.104
2.172,1.448,0.520,232.178,160.461,-50.964
2.075,1.539,0.001,255.066,150.269,-99.854
1.890,1.498,-0.594,275.330,148.071,-139.587
1.676,1.440,-1.104,285.522,163.818,-166.870
1.483,1.345,-1.681,281.921,178.284,-178.101
1.369,1.078,-1.999,266.541,186.646,-182.495
1.118,0.911,-2.282,240.662,163.757,-195.129
0.808,0.755,-2.410,212.463,119.080,-206.543
0.509,0.553,-2.366,184.448,68.359,-208.740
0.313,0.480,-2.296,156.799,24.841,-205.139
0.007,0.306,-2.153,142.639,-10.681,-197.327
-0.233,0.154,-2.031,134.521,-43.396,-184.570
-0.460,0.036,-2.035,121.887,-61.096,-169.678
-0.513,-0.088,-2.071,108.582,-56.335,-149.902
-0.427,-0.188,-2.034,91.248,-44.922,-127.380
-0.309,-0.191,-1.894,70.801,-43.091,-108.582
-0.249,-0.167,-1.708,56.213,-56.274,-95.764
-0.219,-0.203,-1.507,51.147,-78.125,-87.036
-0.207,-0.266,-1.322,49.744,-99.121,-79.590
-0.205,-0.366,-1.158,45.837,-111.023,-71.777
-0.161,-0.465,-1.021,38.147,-111.572,-62.683
-0.092,-0.525,-0.932,30.029,-99.365,-54.565
-0.001,-0.577,-0.879,23.926,-76.965,-46.814
0.110,-0.627,-0.838,18.677,-52.856,-39.246
0.237,-0.639,-0.783,13.916,-34.851,-32.959
0.349,-0.623,-0.741,10.620,-24.719,-27.405
0.422,-0.624,-0.679,12.939,-24.536,-23.376
0.468,-0.654,-0.624,17.151,-30.579,-21.912
0.467,-0.670,-0.564,18.921,-35.461,-21.423
0.462,-0.666,-0.516,17.944,-34.241,-19.653
0.480,-0.624,-0.492,16.785,-25.940,-16.907
0.498,-0.581,-0.518,16.968,-12.146,-14.282
0.527,-0.555,-0.565,16.968,1.831,-12.146
0.555,-0.526,-0.615,16.113,12.024,-10.498
0.582,-0.504,-0.649,15.381,16.418,-8.911
0.606,-0.497,-0.668,15.869,15.137,-7.507
0.614,-0.489,-0.672,18.311,9.277,-5.615
0.607,-0.473,-0.668,21.973,1.099,-3.296
0.594,-0.443,-0.676,25.269,-4.639,-0.977
0.591,-0.426,-0.693,27.222,-5.859,1.221
0.588,-0.410,-0.716,26.917,-3.723,2.136
0.587,-0.417,-0.731,23.743,0.183,0.610
0.571,-0.461,-0.734,19.897,4.517,-2.625
0.535,-0.505,-0.721,14.832,9.155,-6.287
0.509,-0.552,-0.696,9.705,13.916,-8.667
0.492,-0.585,-0.666,6.592,17.761,-8.423
0.481,-0.586,-0.651,5.432,19.104,-6.226
0.494,-0.573,-0.647,5.737,20.386,-2.686
0.527,-0.548,-0.653,7.568,21.484,1.404
0.556,-0.518,-0.664,8.972,21.301,4.456
0.584,-0.496,-0.673,9.644,20.447,5.981
0.606,-0.481,-0.681,9.583,18.738,5.432
0.605,-0.494,-0.696,9.216,16.296,2.991
0.583,-0.519,-0.712,7.874,13.794,0.183
0.552,-0.535,-0.725,6.104,12.268,-1.221
0.538,-0.531,-0.743,4.333,12.024,-0.916
0.539,-0.519,-0.761,3.296,11.658,0.244
0.551,-0.499,-0.777,2.686,9.766,1.770
0.577,-0.470,-0.787,2.502,7.141,3.235
0.601,-0.443,-0.780,1.953,4.028,4.089
0.619,-0.430,-0.768,2.319,0.427,4.211
0.638,-0.437,-0.751,3.235,-2.808,3.418
0.643,-0.463,-0.734,4.150,-5.798,1.892
0.642,-0.483,-0.717,4.211,-7.385,0.488
0.631,-0.501,-0.705,4.150,-7.202,-0.732
0.617,-0.511,-0.705,4.456,-5.981,-1.038
0.611,-0.512,-0.716,4.944,-3.967,0.427
0.613,-0.500,-0.736,4.395,-1.099,1.099
0.618,-0.484,-0.751,2.991,2.014,1.038
0.616,-0.463,-0.753,1.160,3.967,0.488
0.609,-0.445,-0.746,-0.610,3.906,-0.366
0.598,-0.440,-0.731,-1.770,2.625,-1.404
0.582,-0.450,-0.716,-1.709,0.427,-2.075
0.568,-0.463,-0.699,-1.892,-1.648,-2.502
0.566,-0.483,-0.680,-1.831,-2.258,-2.258
0.568,-0.492,-0.668,-1.282,-2.625,-1.221
0.576,-0.486,-0.660,-0.671,-2.502,0.183
0.589,-0.467,-0.656,-0.427,-1.282,1.282
0.597,-0.450,-0.655,0.061,0.366,1.831
0.597,-0.437,-0.656,-0.244,2.441,1.282
0.584,-0.435,-0.666,-0.732,5.127,0.488
0.574,-0.445,-0.682,-1.648,8.301,0.122
0.567,-0.449,-0.696,-2.869,11.292,0.183
0.568,-0.446,-0.701,-4.761,12.817,0.244
0.577,-0.457,-0.708,-4.883,12.024,0.793
0.583,-0.471,-0.711,-3.845,9.216,1.465
0.593,-0.475,-0.708,-2.747,5.249,2.319
0.606,-0.471,-0.700,-1.221,1.770,3.601
0.612,-0.467,-0.693,0.244,-0.854,4.517
0.616,-0.453,-0.681,0.549,-1.892,4.333
0.621,-0.435,-0.668,0.732,-1.343,3.601
0.618,-0.428,-0.660,0.977,0.122,1.953
0.606,-0.436,-0.660,1.465,1.343,-0.244
0.586,-0.455,-0.669,1.465,2.441,-1.709
0.577,-0.480,-0.674,0.977,3.784,-1.953
0.574,-0.497,-0.673,0.061,4.639,-2.136
0.575,-0.517,-0.678,0.671,4.822,-1.831
0.579,-0.529,-0.689,1.587,4.211,-1.160
0.581,-0.527,-0.697,2.075,3.357,-0.244
0.590,-0.514,-0.701,2.686,2.197,0.732
0.596,-0.503,-0.707,3.540,0.793,1.770
0.598,-0.491,-0.711,3.784,-0.793,2.014
0.592,-0.481,-0.712,3.967,-1.953,2.380
0.585,-0.473,-0.711,3.235,-1.953,1.831
0.583,-0.470,-0.708,2.747,-1.404,0.916
0.575,-0.482,-0.712,2.502,-1.038,-0.244
0.574,-0.500,-0.710,2.197,-1.038,-1.099
0.568,-0.513,-0.703,1.099,-1.160,-1.404
1.485,0.497,1.002,118.835,118.469,56.274
1.740,0.760,0.825,142.212,117.737,46.448
1.943,0.937,0.622,162.659,112.732,25.818
2.060,1.028,0.443,177.856,102.661,-1.831
2.086,1.047,0.315,185.181,90.393,-33.508
1.943,1.092,0.143,187.378,78.613,-66.528
1.780,1.120,-0.024,191.956,72.449,-96.252
1.671,1.053,-0.072,199.402,83.740,-113.586
1.521,1.098,-0.267,208.679,100.769,-125.427
1.336,1.117,-0.654,223.877,109.924,-138.000
1.227,1.005,-0.979,237.488,114.014,-146.606
1.090,0.908,-1.224,235.107,112.488,-152.649
0.856,0.871,-1.534,224.304,101.318,-160.645
0.637,0.711,-1.849,220.703,92.834,-169.434
0.451,0.488,-2.091,214.905,86.548,-175.293
0.302,0.319,-2.264,195.679,72.998,-176.880
0.205,0.183,-2.299,167.480,50.415,-174.011
0.142,0.097,-2.192,140.930,20.264,-168.579
0.091,0.038,-2.012,124.329,-15.503,-160.522
0.065,0.018,-1.787,114.014,-48.645,-150.330
0.035,0.017,-1.634,111.145,-74.524,-140.137
-0.010,-0.040,-1.580,114.014,-92.163,-130.432
-0.031,-0.096,-1.605,112.793,-90.881,-119.141
-0.024,-0.140,-1.635,102.478,-75.684,-109.497
-0.003,-0.164,-1.624,85.449,-58.777,-102.234
0.004,-0.153,-1.545,67.139,-46.875,-97.107
-0.028,-0.156,-1.448,54.626,-43.823,-93.140
-0.132,-0.251,-1.364,50.537,-48.279,-92.957
-0.269,-0.466,-1.302,51.147,-52.795,-94.910
-0.434,-0.665,-1.264,46.936,-50.415,-95.215
-0.523,-0.882,-1.235,39.001,-38.696,-91.919
-0.485,-1.061,-1.186,29.785,-21.667,-80.322
-0.319,-1.114,-1.096,15.686,-4.517,-57.983
-0.021,-0.943,-0.932,2.380,5.493,-27.222
0.302,-0.720,-0.809,-1.099,4.517,0.793
0.569,-0.565,-0.731,5.310,-8.179,17.944
0.757,-0.473,-0.658,14.404,-28.137,22.461
0.829,-0.421,-0.590,20.264,-46.631,16.357
0.833,-0.397,-0.524,22.217,-55.298,5.920
0.780,-0.409,-0.477,19.409,-51.575,-3.906
0.704,-0.431,-0.447,13.123,-37.842,-11.902
0.635,-0.435,-0.454,8.179,-19.531,-16.785
0.568,-0.448,-0.500,8.728,-2.686,-17.822
0.513,-0.468,-0.575,13.000,9.399,-17.456
0.458,-0.503,-0.672,18.066,14.893,-14.465
0.427,-0.515,-0.750,20.569,17.944,-9.094
0.458,-0.501,-0.790,19.226,21.484,-2.625
0.537,-0.453,-0.800,15.991,21.667,4.028
0.630,-0.387,-0.780,13.672,18.494,8.789
0.685,-0.365,-0.771,12.451,12.817,8.484
0.699,-0.380,-0.753,9.766,7.385,4.700
0.696,-0.408,-0.717,5.493,5.066,-0.488
0.667,-0.459,-0.675,2.563,4.639,-5.371
0.624,-0.522,-0.663,2.075,4.517,-8.911
0.591,-0.562,-0.646,2.808,5.737,-9.155
0.582,-0.582,-0.643,3.052,8.362,-6.714
0.579,-0.587,-0.645,4.211,10.620,-3.235
0.582,-0.554,-0.665,4.883,12.695,1.099
0.598,-0.508,-0.686,6.104,14.221,5.005
0.616,-0.450,-0.709,7.629,14.038,7.690
0.649,-0.390,-0.735,9.033,12.817,9.583
0.687,-0.354,-0.753,9.216,10.803,8.850
0.707,-0.339,-0.754,7.507,6.592,5.920
0.701,-0.347,-0.740,5.188,2.197,1.526
0.667,-0.381,-0.720,4.089,-0.366,-3.113
0.622,-0.414,-0.705,3.052,-1.221,-6.104
0.587,-0.443,-0.681,2.747,-0.610,-6.531
0.565,-0.462,-0.661,2.686,0.549,-5.127
0.560,-0.469,-0.646,2.747,1.404,-2.747
0.570,-0.442,-0.629,2.930,2.441,0.000
0.595,-0.428,-0.640,4.333,3.052,2.808
0.618,-0.427,-0.668,6.042,3.357,4.089
0.633,-0.439,-0.701,6.775,3.357,4.150
0.649,-0.449,-0.725,5.432,4.028,2.441
0.664,-0.453,-0.731,3.662,4.395,0.244
0.653,-0.440,-0.734,2.136,3.662,-1.221
0.641,-0.435,-0.733,1.587,2.747,-1.953
0.628,-0.431,-0.732,1.221,2.380,-1.892
0.613,-0.422,-0.726,0.671,2.441,-1.709
0.599,-0.417,-0.711,-0.366,3.113,-1.465
0.590,-0.414,-0.696,-1.099,4.089,-0.732
0.588,-0.419,-0.686,-0.671,4.333,0.488
0.597,-0.432,-0.676,0.732,3.235,1.282
0.608,-0.442,-0.667,2.808,1.038,1.587
0.621,-0.450,-0.664,5.432,-0.977,2.380
0.625,-0.446,-0.671,7.507,-2.014,2.502
0.628,-0.426,-0.679,8.240,-1.709,2.502
0.641,-0.424,-0.694,8.240,-0.244,1.709
0.633,-0.406,-0.709,7.324,1.709,-0.610
0.618,-0.405,-0.722,6.287,3.723,-2.441
0.596,-0.410,-0.737,5.493,4.883,-2.930
0.580,-0.411,-0.745,4.395,5.310,-3.052
0.576,-0.420,-0.740,3.235,5.737,-2.563
0.575,-0.423,-0.739,2.502,6.470,-1.648
0.585,-0.445,-0.737,1.587,6.775,-0.793
0.587,-0.455,-0.731,0.671,6.714,-0.366
0.586,-0.454,-0.718,-0.244,6.104,0.061
0.589,-0.442,-0.705,-0.977,6.104,0.916
0.597,-0.428,-0.694,-0.854,6.042,2.197
0.607,-0.412,-0.681,-0.122,5.127,2.991
0.609,-0.391,-0.672,0.977,3.296,2.747
0.604,-0.385,-0.681,3.052,1.892,1.953
0.599,-0.404,-0.700,5.127,0.916,1.282
0.595,-0.416,-0.720,5.432,0.916,0.305
0.606,-0.422,-0.730,5.005,1.404,-0.244
0.608,-0.439,-0.743,4.700,1.465,-0.732
0.604,-0.448,-0.747,4.089,1.038,-1.099
0.606,-0.455,-0.750,2.991,1.038,-0.244
0.609,-0.454,-0.746,2.014,0.977,0.977
0.612,-0.444,-0.733,0.916,0.732,2.014
0.614,-0.427,-0.714,0.305,0.549,2.991
0.620,-0.410,-0.699,0.427,0.732,3.662
0.630,-0.418,-0.687,0.916,0.732,3.052
0.630,-0.424,-0.677,1.587,0.732,2.502
0.635,-0.418,-0.678,2.686,0.793,2.258
0.642,-0.416,-0.690,3.784,1.282,1.648
0.645,-0.413,-0.709,5.127,1.526,0.916
0.647,-0.407,-0.726,5.798,1.526,0.122
0.648,-0.409,-0.741,5.310,1.831,-1.038
1.590,0.546,0.703,143.860,86.792,28.870
1.796,0.692,0.601,163.086,79.224,24.963
1.891,0.965,0.373,179.932,76.538,11.536
2.021,1.130,0.224,193.420,81.909,-10.315
2.087,1.210,-0.062,202.820,86.243,-39.124
2.042,1.218,-0.275,205.627,96.680,-73.242
1.892,1.177,-0.516,203.491,108.459,-108.276
1.707,1.153,-0.744,202.026,118.591,-137.268
1.509,1.076,-0.948,200.989,123.596,-155.396
1.319,0.956,-1.074,198.730,117.432,-165.710
1.064,0.877,-1.235,197.144,98.328,-171.875
0.734,0.792,-1.511,203.247,77.820,-177.002
0.434,0.631,-1.848,214.722,69.580,-178.101
0.231,0.425,-2.205,216.614,71.899,-173.462
0.099,0.187,-2.482,201.721,72.571,-164.612
0.042,0.006,-2.519,172.424,57.434,-158.020
-0.007,-0.083,-2.345,134.338,28.992,-156.982
-0.074,-0.139,-2.064,105.530,-7.629,-157.410
-0.145,-0.176,-1.823,90.515,-48.767,-147.583
-0.206,-0.218,-1.581,82.214,-80.139,-130.432
-0.242,-0.227,-1.407,78.308,-95.764,-113.953
-0.311,-0.265,-1.302,77.271,-97.656,-99.426
-0.459,-0.378,-1.301,76.721,-90.027,-91.187
-0.608,-0.613,-1.344,69.458,-73.181,-89.050
-0.714,-0.834,-1.391,53.467,-47.119,-85.999
-0.617,-1.008,-1.391,32.837,-16.541,-72.937
-0.314,-1.084,-1.274,11.963,5.005,-45.776
0.045,-0.888,-1.052,-5.188,8.728,-13.855
0.346,-0.675,-0.916,-9.277,-1.953,12.756
0.599,-0.516,-0.785,-0.122,-18.616,29.236
0.773,-0.407,-0.698,10.498,-34.485,33.142
0.897,-0.330,-0.621,15.686,-42.969,26.917
0.953,-0.318,-0.546,14.038,-40.894,15.076
0.947,-0.354,-0.490,7.019,-29.541,1.099
0.902,-0.413,-0.450,0.122,-13.550,-11.658
0.836,-0.446,-0.427,-3.418,1.709,-20.264
0.751,-0.456,-0.433,-2.563,11.353,-23.315
0.680,-0.462,-0.480,3.479,15.564,-23.682
0.582,-0.471,-0.561,12.878,16.235,-21.362
0.516,-0.484,-0.646,19.897,16.418,-17.273
0.500,-0.472,-0.709,21.179,18.005,-10.132
0.545,-0.418,-0.729,18.555,20.081,-2.441
0.621,-0.360,-0.718,15.259,19.531,3.845
0.696,-0.345,-0.710,14.587,15.747,6.104
0.703,-0.343,-0.720,14.709,10.925,3.479
0.710,-0.373,-0.700,12.634,7.996,0.122
0.696,-0.420,-0.676,8.972,7.568,-3.113
0.665,-0.442,-0.649,4.944,9.705,-6.348
0.642,-0.462,-0.629,3.052,13.000,-8.545
0.619,-0.476,-0.629,3.540,14.954,-8.850
0.601,-0.485,-0.633,5.066,15.991,-7.874
0.586,-0.479,-0.639,6.348,16.968,-6.531
0.583,-0.470,-0.650,7.996,16.968,-4.944
0.582,-0.466,-0.674,9.460,16.357,-2.991
0.586,-0.461,-0.688,9.644,16.296,-1.160
0.605,-0.454,-0.700,9.094,16.235,1.526
0.622,-0.444,-0.715,8.972,15.747,3.906
0.642,-0.433,-0.726,8.423,15.076,5.249
0.659,-0.419,-0.731,7.019,13.855,5.859
0.664,-0.406,-0.732,5.432,11.658,5.493
0.661,-0.404,-0.729,3.357,9.399,3.967
0.653,-0.404,-0.722,1.282,7.446,2.563
0.649,-0.401,-0.703,-0.549,6.165,1.709
0.649,-0.409,-0.682,-2.014,4.822,1.404
0.656,-0.420,-0.660,-2.075,2.441,1.465
0.662,-0.421,-0.642,-0.854,-0.427,2.014
0.672,-0.423,-0.634,0.610,-2.319,2.441
0.678,-0.420,-0.628,2.747,-4.028,3.174
0.682,-0.418,-0.624,4.883,-5.188,3.479
0.679,-0.415,-0.626,6.531,-5.737,3.540
0.686,-0.411,-0.640,7.141,-4.822,3.479
0.694,-0.406,-0.649,7.202,-3.113,2.808
0.695,-0.395,-0.659,6.897,-1.648,1.526
0.701,-0.389,-0.672,7.385,-0.305,0.671
0.694,-0.394,-0.690,8.240,0.183,-0.427
0.691,-0.409,-0.703,8.301,0.000,-1.648
0.683,-0.418,-0.706,7.690,-0.549,-2.197
0.680,-0.414,-0.707,6.958,-0.366,-2.441
0.682,-0.410,-0.710,6.836,0.122,-2.808
0.681,-0.411,-0.716,7.141,0.488,-3.296
0.677,-0.402,-0.711,6.531,0.916,-3.662
0.667,-0.396,-0.708,5.493,1.160,-4.028
0.668,-0.391,-0.705,5.127,1.404,-4.395
0.651,-0.393,-0.703,5.493,1.465,-4.456
0.638,-0.395,-0.715,4.700,2.014,-4.700
0.634,-0.405,-0.721,4.150,2.319,-4.517
0.627,-0.409,-0.715,2.991,2.258,-4.028
0.624,-0.419,-0.706,1.709,2.563,-3.540
0.618,-0.416,-0.701,1.343,2.563,-2.930
0.616,-0.408,-0.699,1.648,2.441,-2.136
0.614,-0.402,-0.701,1.404,2.197,-1.587
0.615,-0.394,-0.703,1.099,2.441,-0.671
0.615,-0.388,-0.698,0.061,3.418,-0.061
0.623,-0.387,-0.693,-0.366,3.784,0.427
0.633,-0.389,-0.691,-0.122,2.747,0.793
0.643,-0.397,-0.685,0.122,0.916,1.343
0.651,-0.406,-0.679,0.427,-0.610,1.587
0.653,-0.407,-0.675,1.343,-1.892,1.953
0.663,-0.410,-0.673,1.892,-1.953,2.502
0.669,-0.411,-0.673,1.648,-0.916,2.502
0.673,-0.402,-0.669,1.099,0.549,2.136
0.670,-0.394,-0.665,0.732,1.953,1.526
0.667,-0.391,-0.666,0.854,2.747,0.854
0.663,-0.391,-0.678,1.953,2.563,0.122
0.655,-0.396,-0.689,3.296,1.526,-0.793
0.648,-0.399,-0.701,3.845,0.305,-0.977
0.645,-0.400,-0.703,4.395,-0.732,-1.038
0.642,-0.405,-0.703,4.456,-1.709,-1.038
0.640,-0.398,-0.699,4.211,-2.319,-1.099
0.641,-0.391,-0.698,4.456,-2.380,-0.549
0.639,-0.395,-0.701,4.639,-1.953,-0.305
0.633,-0.393,-0.704,3.845,-1.038,-0.122
0.631,-0.388,-0.702,2.441,0.854,0.000
0.631,-0.393,-0.701,1.587,2.625,0.244
0.631,-0.400,-0.701,0.977,3.418,0.183
0.636,-0.404,-0.707,1.526,3.601,0.977
0.650,-0.413,-0.708,2.075,3.113,1.648
0.659,-0.408,-0.712,2.258,2.380,2.014
0.666,-0.398,-0.714,2.258,1.221,2.441
0.659,-0.799,1.130,28.381,1.343,27.954
0.703,-0.748,1.177,33.264,20.752,36.560
0.803,-0.529,1.213,37.720,46.448,47.241
1.031,-0.289,1.205,49.866,75.378,57.739
1.305,-0.114,1.116,70.190,98.633,62.744
1.586,0.093,1.028,95.703,108.765,58.289
1.785,0.277,0.889,119.873,104.370,45.349
1.899,0.409,0.752,141.846,91.675,24.841
1.963,0.515,0.637,157.532,80.078,-1.526
2.054,0.679,0.544,167.114,73.608,-27.466
2.119,0.914,0.432,176.819,72.205,-49.744
2.173,1.103,0.268,191.162,74.158,-66.589
2.180,1.184,0.058,210.388,80.383,-80.627
2.064,1.308,-0.283,228.149,81.726,-104.004
1.924,1.368,-0.660,242.432,89.600,-128.174
1.695,1.337,-1.139,250.610,107.300,-149.536
1.447,1.151,-1.609,247.986,126.465,-171.448
1.159,0.923,-2.035,230.591,134.521,-194.336
0.900,0.688,-2.229,196.777,124.573,-213.501
0.683,0.535,-2.203,154.907,91.736,-226.868
0.460,0.478,-1.966,120.544,39.063,-230.957
0.222,0.486,-1.713,108.215,-21.729,-223.083
-0.002,0.459,-1.667,116.272,-72.021,-210.510
-0.268,0.254,-1.691,134.583,-95.459,-197.388
-0.473,0.131,-1.788,143.860,-93.994,-181.396
-0.615,-0.032,-1.993,131.165,-69.519,-167.175
-0.578,-0.149,-2.121,104.858,-33.997,-153.503
-0.469,-0.226,-2.125,74.829,-8.972,-137.207
-0.414,-0.242,-2.047,49.500,-7.874,-120.972
-0.523,-0.265,-1.919,37.659,-28.625,-112.061
-0.905,-0.431,-1.805,40.588,-62.927,-115.540
-1.462,-0.823,-1.769,44.739,-94.910,-129.517
-1.606,-1.275,-1.672,35.400,-101.990,-138.489
-1.219,-1.406,-1.353,2.441,-78.186,-105.530
-0.664,-1.088,-0.951,-38.879,-44.067,-33.508
-0.181,-0.761,-0.691,-49.927,-22.644,26.794
0.271,-0.590,-0.570,-25.085,-21.790,55.725
0.539,-0.481,-0.578,4.761,-33.386,59.021
0.795,-0.453,-0.492,19.104,-46.997,49.255
0.882,-0.407,-0.492,16.296,-61.157,31.494
0.888,-0.379,-0.411,5.981,-61.035,13.550
0.841,-0.415,-0.341,-1.343,-50.537,-0.793
0.765,-0.497,-0.310,-3.174,-34.363,-12.939
0.677,-0.556,-0.328,-1.343,-16.418,-23.132
0.607,-0.598,-0.362,2.014,-0.793,-29.358
0.528,-0.616,-0.423,7.507,9.949,-29.968
0.475,-0.611,-0.499,13.245,16.479,-26.245
0.465,-0.589,-0.575,18.127,19.409,-18.616
0.493,-0.545,-0.637,21.545,18.555,-8.728
0.541,-0.474,-0.686,24.048,14.099,0.427
0.597,-0.416,-0.724,27.527,8.423,6.836
0.639,-0.398,-0.774,31.372,2.563,8.972
0.660,-0.404,-0.822,31.555,-0.488,6.226
0.652,-0.440,-0.853,26.855,0.061,0.244
0.620,-0.489,-0.853,18.616,2.747,-7.019
0.573,-0.545,-0.832,10.254,6.287,-13.916
0.539,-0.597,-0.803,4.395,9.644,-18.005
0.521,-0.634,-0.776,1.038,11.658,-18.738
0.509,-0.669,-0.752,-0.549,11.841,-17.822
0.500,-0.673,-0.731,-1.160,10.620,-15.503
0.495,-0.666,-0.709,-1.038,10.132,-12.024
0.499,-0.645,-0.694,-0.305,10.132,-8.057
0.501,-0.610,-0.685,0.916,9.888,-4.639
0.509,-0.578,-0.679,2.014,10.071,-2.319
0.521,-0.549,-0.676,2.502,9.949,-1.282
0.523,-0.533,-0.675,2.747,8.423,-1.526
0.507,-0.539,-0.675,2.869,6.104,-2.197
0.493,-0.556,-0.680,2.930,4.395,-2.258
0.485,-0.556,-0.684,2.625,4.089,-1.099
0.500,-0.547,-0.686,2.380,4.211,1.221
0.525,-0.538,-0.682,2.258,4.211,3.357
0.540,-0.526,-0.675,2.502,2.808,4.517
0.549,-0.514,-0.665,2.808,0.732,5.127
0.556,-0.510,-0.655,2.991,-0.549,5.188
0.563,-0.512,-0.645,3.418,-1.404,4.639
0.572,-0.517,-0.640,3.662,-1.343,4.089
0.578,-0.529,-0.638,4.089,-1.099,3.174
0.579,-0.544,-0.638,4.456,-1.221,2.441
0.579,-0.550,-0.641,5.005,-1.587,2.319
0.583,-0.544,-0.646,5.249,-1.404,2.502
0.586,-0.531,-0.661,6.226,-1.282,2.747
0.587,-0.521,-0.680,7.080,-0.916,2.686
0.585,-0.512,-0.702,7.507,-0.549,1.953
0.580,-0.511,-0.715,7.080,-0.732,0.854
0.575,-0.521,-0.716,5.676,-0.854,-0.488
0.567,-0.537,-0.708,4.028,-1.343,-1.709
0.553,-0.542,-0.699,3.479,-1.892,-2.014
0.546,-0.544,-0.693,3.662,-2.075,-1.526
0.548,-0.544,-0.687,3.723,-1.770,-0.732
0.550,-0.536,-0.681,3.235,-1.160,0.000
0.552,-0.529,-0.671,2.686,-0.061,0.366
0.551,-0.524,-0.664,2.686,0.610,-0.061
0.545,-0.518,-0.664,3.235,0.854,0.000
0.543,-0.525,-0.670,3.967,1.404,0.305
0.548,-0.538,-0.674,4.517,1.831,0.366
0.552,-0.540,-0.677,4.456,2.197,0.549
0.558,-0.540,-0.688,4.761,2.258,0.793
0.567,-0.541,-0.697,4.700,2.502,0.549
0.569,-0.535,-0.700,4.456,2.380,0.549
0.564,-0.523,-0.700,4.333,2.441,0.427
0.563,-0.515,-0.703,4.150,3.052,0.427
0.564,-0.503,-0.710,3.662,3.723,0.244
0.562,-0.496,-0.710,2.930,3.662,-0.488
0.553,-0.495,-0.704,2.014,2.747,-1.282
0.546,-0.505,-0.695,2.136,1.648,-1.404
0.547,-0.521,-0.692,2.625,0.732,-0.916
0.553,-0.535,-0.695,3.113,0.488,-0.122
0.560,-0.536,-0.693,3.113,0.793,0.671
0.564,-0.529,-0.693,2.869,0.916,1.282
0.564,-0.524,-0.695,2.747,1.160,1.343
0.566,-0.516,-0.703,3.113,1.404,1.587
0.565,-0.507,-0.710,3.235,1.587,1.465
0.562,-0.500,-0.715,2.930,1.648,0.977
0.559,-0.500,-0.717,2.686,1.404,0.305
0.557,-0.504,-0.716,2.258,0.793,-0.183
0.553,-0.510,-0.711,1.953,0.122,-0.854
0.550,-0.518,-0.706,1.953,-0.366,-0.793
0.550,-0.526,-0.699,1.709,-0.305,-0.427
0.550,-0.524,-0.689,1.160,0.000,-0.061
0.579,-0.859,1.269,11.475,29.785,23.193
0.592,-0.823,1.432,24.048,33.569,32.104
0.601,-0.651,1.496,43.640,35.950,44.189
0.688,-0.622,1.561,65.918,42.847,58.228
0.740,-0.513,1.540,90.576,47.180,67.139
0.809,-0.362,1.519,111.694,50.049,70.740
0.923,-0.109,1.493,129.395,55.969,73.181
1.084,0.225,1.394,148.499,65.430,72.205
1.378,0.528,1.212,174.072,78.979,66.589
1.693,0.901,0.952,196.472,97.351,53.040
2.090,1.254,0.621,212.585,119.324,30.457
2.367,1.504,0.244,226.196,136.353,-4.944
2.483,1.523,-0.077,235.840,143.799,-50.598
2.478,1.486,-0.335,234.802,134.277,-96.008
2.269,1.496,-0.622,229.980,113.464,-132.874
1.908,1.443,-1.077,239.380,95.886,-162.109
1.560,1.191,-1.591,260.071,95.703,-180.847
1.228,0.908,-2.065,268.188,107.849,-193.176
0.963,0.638,-2.375,250.732,111.694,-200.684
0.733,0.386,-2.427,212.280,96.863,-207.703
0.444,0.250,-2.304,172.546,60.730,-214.233
-0.009,0.219,-2.071,146.729,11.047,-210.876
-0.113,0.046,-2.023,135.803,-29.480,-199.219
-0.217,-0.026,-1.899,129.944,-54.138,-182.373
-0.431,-0.014,-1.911,114.685,-61.401,-164.612
-0.516,-0.121,-1.958,107.178,-47.180,-150.940
-0.544,-0.213,-1.989,93.872,-28.992,-136.841
-0.583,-0.275,-1.976,74.646,-20.874,-122.192
-0.748,-0.363,-1.921,60.974,-25.879,-109.924
-1.011,-0.593,-1.877,55.969,-42.786,-106.018
-1.236,-0.901,-1.778,49.316,-59.082,-103.638
-1.155,-1.076,-1.599,32.043,-63.293,-89.294
-0.757,-1.017,-1.303,8.545,-54.871,-52.551
-0.238,-0.809,-1.006,-8.362,-48.523,-8.484
0.179,-0.567,-0.794,-9.399,-54.199,19.653
0.474,-0.451,-0.671,3.601,-62.683,29.297
0.679,-0.420,-0.605,16.479,-68.115,27.039
0.823,-0.409,-0.447,19.775,-66.406,18.616
0.879,-0.420,-0.403,15.808,-66.162,9.033
0.874,-0.421,-0.331,10.193,-57.556,-1.099
0.819,-0.446,-0.296,7.141,-41.626,-9.827
0.738,-0.488,-0.293,6.653,-21.545,-17.700
0.632,-0.516,-0.336,7.935,-2.686,-25.024
0.534,-0.544,-0.403,10.437,12.573,-29.419
0.434,-0.574,-0.495,15.198,23.071,-30.029
0.363,-0.612,-0.600,20.203,28.198,-26.306
0.340,-0.628,-0.688,22.644,29.541,-17.517
0.385,-0.602,-0.758,22.827,27.100,-5.859
0.479,-0.541,-0.789,22.339,21.973,5.676
0.579,-0.475,-0.811,22.461,14.343,14.160
0.671,-0.448,-0.838,22.766,5.615,17.822
0.723,-0.439,-0.833,18.921,-2.380,15.442
0.722,-0.439,-0.801,12.512,-7.202,8.179
0.676,-0.480,-0.759,7.446,-7.629,-0.854
0.608,-0.552,-0.724,3.845,-4.822,-8.728
0.544,-0.614,-0.692,0.061,0.305,-13.916
0.503,-0.646,-0.659,-2.441,6.897,-14.648
0.486,-0.654,-0.631,-2.014,12.024,-12.878
0.487,-0.656,-0.624,1.709,13.733,-8.850
0.510,-0.651,-0.633,6.287,12.939,-4.089
0.538,-0.618,-0.640,10.010,10.315,0.305
0.560,-0.576,-0.645,12.451,6.958,4.089
0.584,-0.534,-0.648,15.259,4.456,6.409
0.602,-0.502,-0.671,16.846,2.502,7.385
0.622,-0.485,-0.690,16.296,1.404,6.714
0.626,-0.466,-0.708,13.794,1.099,4.089
0.618,-0.461,-0.716,10.620,1.343,0.244
0.596,-0.472,-0.723,7.324,2.258,-3.357
0.569,-0.494,-0.722,5.188,3.052,-5.188
0.549,-0.508,-0.717,3.479,3.601,-5.676
0.541,-0.519,-0.707,2.625,3.784,-4.822
0.551,-0.534,-0.695,2.686,2.991,-3.479
0.567,-0.540,-0.677,3.113,0.854,-1.892
0.590,-0.543,-0.655,3.967,-1.953,-0.549
0.606,-0.527,-0.636,5.920,-4.822,0.977
0.620,-0.507,-0.626,7.935,-6.775,1.709
0.625,-0.502,-0.626,10.132,-7.996,1.831
0.615,-0.495,-0.635,12.024,-8.484,0.977
0.600,-0.495,-0.649,12.878,-7.629,-0.427
0.587,-0.500,-0.674,12.329,-5.737,-1.709
0.582,-0.503,-0.700,11.169,-3.174,-2.258
0.584,-0.507,-0.719,8.362,-0.366,-3.296
0.579,-0.510,-0.724,5.371,1.404,-4.517
0.566,-0.512,-0.731,3.052,2.075,-5.127
0.557,-0.517,-0.730,1.709,2.258,-5.005
0.552,-0.515,-0.725,0.610,2.136,-4.150
0.551,-0.510,-0.717,0.244,1.709,-2.869
0.557,-0.510,-0.705,0.000,1.038,-2.014
0.564,-0.512,-0.689,0.000,0.610,-1.221
0.572,-0.520,-0.674,0.305,0.305,-0.610
0.574,-0.520,-0.659,0.671,-0.244,-0.488
0.575,-0.518,-0.657,1.160,-0.183,-0.977
0.568,-0.517,-0.665,2.075,0.427,-0.977
0.555,-0.516,-0.678,2.197,1.770,-1.343
0.547,-0.511,-0.692,1.770,3.723,-1.770
0.541,-0.512,-0.701,1.038,5.310,-1.953
0.538,-0.513,-0.700,0.122,5.981,-2.319
0.536,-0.517,-0.695,-0.183,5.615,-2.258
0.539,-0.513,-0.692,0.549,5.005,-0.977
0.550,-0.510,-0.695,1.343,4.395,0.732
0.561,-0.503,-0.703,1.831,3.479,2.136
0.578,-0.496,-0.703,1.526,3.113,3.052
0.594,-0.490,-0.696,0.916,3.113,3.357
0.604,-0.494,-0.695,0.610,2.563,2.930
0.603,-0.502,-0.693,0.793,1.648,1.587
0.589,-0.511,-0.691,0.732,1.099,0.061
0.577,-0.519,-0.691,0.732,0.977,-0.671
0.565,-0.521,-0.688,0.305,0.793,-0.793
0.556,-0.515,-0.684,0.183,0.977,-0.610
0.555,-0.515,-0.679,0.366,0.854,0.061
0.549,-0.506,-0.678,0.916,0.366,1.099
0.546,-0.501,-0.678,1.343,0.244,1.831
0.553,-0.501,-0.681,1.709,0.732,2.686
0.562,-0.503,-0.684,1.770,1.648,3.113
0.572,-0.507,-0.684,1.343,2.258,2.930
0.578,-0.508,-0.687,0.916,2.441,2.747
0.583,-0.509,-0.684,0.793,2.380,2.869
0.591,-0.505,-0.683,0.549,2.258,2.502
0.594,-0.500,-0.680,0.732,1.526,1.465
1.626,0.264,0.658,148.071,76.050,13.123
1.745,0.328,0.541,158.752,69.336,9.949
1.900,0.457,0.462,162.842,58.105,2.014
2.015,0.638,0.425,164.917,42.908,-16.357
2.013,0.829,0.320,167.664,22.766,-42.419
2.022,0.837,0.325,173.035,23.621,-64.758
2.035,0.954,0.376,178.650,39.490,-89.783
2.043,1.123,0.297,188.538,52.124,-113.159
1.931,1.254,0.055,206.116,66.162,-129.333
1.716,1.243,-0.416,226.868,76.843,-141.418
1.435,1.157,-0.988,244.324,91.797,-156.067
1.232,0.985,-1.579,252.808,111.389,-169.617
1.073,0.732,-1.994,246.094,116.577,-180.847
0.915,0.571,-2.146,218.506,92.834,-193.115
0.737,0.510,-2.006,181.030,45.227,-204.224
0.492,0.535,-1.703,154.419,-10.681,-208.374
0.153,0.632,-1.827,146.912,-48.401,-207.092
-0.231,0.333,-1.727,159.790,-51.453,-202.087
-0.366,0.223,-1.992,153.748,-24.536,-189.575
-0.484,0.061,-2.182,135.010,8.362,-176.514
-0.498,-0.105,-2.245,114.990,21.362,-165.527
-0.505,-0.270,-2.159,93.689,9.888,-153.442
-0.520,-0.330,-2.007,76.477,-18.188,-136.169
-0.601,-0.345,-1.878,71.045,-49.927,-117.615
-0.752,-0.444,-1.741,73.364,-72.205,-102.173
-0.937,-0.595,-1.625,68.726,-84.595,-91.980
-0.986,-0.751,-1.498,50.903,-79.773,-83.496
-0.749,-0.860,-1.292,24.658,-56.152,-67.810
-0.355,-0.757,-1.020,0.000,-30.884,-42.664
0.057,-0.629,-0.798,-9.644,-19.836,-17.700
0.360,-0.548,-0.642,-3.113,-26.611,-2.136
0.608,-0.561,-0.524,9.399,-38.452,2.991
0.698,-0.548,-0.454,16.907,-44.739,2.930
0.768,-0.527,-0.396,17.029,-46.265,0.366
0.792,-0.499,-0.375,14.587,-45.959,-2.869
0.816,-0.463,-0.374,12.146,-33.264,-5.005
0.807,-0.448,-0.383,10.742,-18.738,-6.531
0.785,-0.435,-0.408,11.597,-6.897,-10.315
0.725,-0.436,-0.447,14.709,0.305,-15.503
0.643,-0.454,-0.487,19.592,4.700,-17.639
0.558,-0.489,-0.542,24.475,7.080,-17.090
0.481,-0.515,-0.617,27.954,10.620,-14.587
0.453,-0.541,-0.696,28.198,16.357,-9.644
0.497,-0.548,-0.743,23.865,21.790,-3.540
0.576,-0.513,-0.761,18.127,23.132,1.099
0.659,-0.468,-0.754,15.808,20.325,4.700
0.724,-0.448,-0.755,15.137,15.564,6.042
0.755,-0.452,-0.743,14.648,11.169,3.845
0.745,-0.476,-0.719,13.977,8.240,-1.526
0.707,-0.501,-0.695,11.536,7.874,-7.263
0.652,-0.529,-0.667,9.033,9.460,-12.268
0.602,-0.554,-0.646,8.362,11.414,-14.709
0.550,-0.574,-0.635,7.996,12.878,-15.137
0.516,-0.589,-0.638,8.667,14.404,-13.855
0.490,-0.598,-0.652,9.399,15.747,-11.292
0.477,-0.595,-0.684,9.277,17.761,-8.057
0.484,-0.609,-0.728,7.935,20.020,-3.906
0.508,-0.595,-0.749,5.188,21.606,0.366
0.557,-0.546,-0.756,1.465,21.912,4.822
0.614,-0.501,-0.760,0.427,20.020,7.141
0.657,-0.478,-0.763,1.282,13.977,6.775
0.674,-0.459,-0.762,1.892,5.310,4.395
0.661,-0.454,-0.742,1.587,-2.136,1.465
0.643,-0.456,-0.708,0.610,-6.470,-0.671
0.624,-0.463,-0.674,-0.305,-7.507,-1.831
0.614,-0.477,-0.648,-0.793,-6.165,-2.136
0.611,-0.482,-0.618,-0.977,-4.150,-2.136
0.613,-0.488,-0.590,-0.854,-2.625,-1.648
0.610,-0.499,-0.573,0.305,-2.136,-1.099
0.606,-0.497,-0.569,1.892,-1.221,0.366
0.613,-0.493,-0.577,2.869,1.038,2.441
0.616,-0.489,-0.599,3.235,3.357,4.578
0.626,-0.484,-0.622,2.502,5.737,6.409
0.652,-0.468,-0.643,1.587,7.812,6.714
0.676,-0.472,-0.666,1.831,7.080,4.883
0.684,-0.476,-0.689,2.930,3.235,2.380
0.672,-0.490,-0.701,3.906,-1.099,-0.793
0.653,-0.500,-0.701,3.906,-4.395,-2.808
0.636,-0.500,-0.694,3.174,-5.859,-3.784
0.627,-0.496,-0.675,2.258,-5.310,-4.150
0.622,-0.496,-0.655,1.526,-4.211,-4.578
0.614,-0.494,-0.629,1.526,-2.808,-4.639
0.602,-0.498,-0.613,2.258,-1.343,-4.639
0.587,-0.502,-0.606,3.601,0.183,-4.150
0.575,-0.504,-0.606,5.005,1.892,-2.808
0.577,-0.510,-0.615,5.737,3.540,-1.831
0.577,-0.513,-0.633,6.775,4.517,-0.366
0.573,-0.514,-0.662,8.240,5.432,1.587
0.580,-0.509,-0.684,8.545,6.409,3.235
0.595,-0.489,-0.701,7.629,7.141,4.456
0.611,-0.475,-0.722,6.653,6.958,5.005
0.624,-0.469,-0.730,4.700,6.104,4.333
0.634,-0.460,-0.720,1.648,4.517,3.113
0.638,-0.457,-0.699,-0.244,3.235,1.587
0.636,-0.462,-0.679,-0.916,2.136,0.122
0.630,-0.470,-0.665,-0.916,1.465,-0.549
0.625,-0.476,-0.657,-0.671,1.221,-0.916
0.623,-0.485,-0.651,-0.366,1.221,-1.099
0.613,-0.497,-0.651,0.122,1.160,-1.038
0.599,-0.501,-0.652,1.221,0.916,-0.366
0.596,-0.500,-0.654,2.075,1.099,0.427
0.605,-0.492,-0.661,2.625,1.587,1.404
0.625,-0.476,-0.664,2.991,2.197,2.075
0.641,-0.464,-0.667,2.991,2.869,1.526
0.648,-0.463,-0.667,2.808,2.502,0.610
0.646,-0.478,-0.669,3.052,1.831,-0.305
0.638,-0.486,-0.673,2.441,1.587,-0.977
0.637,-0.496,-0.675,1.831,1.953,-1.160
0.633,-0.498,-0.676,1.709,2.014,-1.099
0.622,-0.493,-0.677,1.709,1.282,-1.160
0.611,-0.492,-0.681,1.709,0.488,-0.610
0.607,-0.484,-0.676,1.526,-0.488,0.061
0.600,-0.473,-0.668,1.465,-1.343,0.427
0.598,-0.473,-0.665,2.014,-1.770,0.671
0.603,-0.479,-0.671,2.747,-1.221,0.671
0.613,-0.481,-0.677,2.319,-0.488,0.061
0.624,-0.486,-0.682,1.526,0.977,-0.427
0.634,-0.483,-0.679,0.488,1.831,-0.977
0.640,-0.480,-0.677,-0.061,1.709,-1.892
1.795,0.654,0.657,166.931,55.786,7.568
1.976,0.871,0.533,184.204,59.814,-8.423
2.109,1.029,0.349,198.486,68.665,-32.166
2.189,1.130,0.144,206.421,79.163,-61.707
2.243,1.249,-0.004,205.933,87.646,-92.346
2.201,1.363,-0.078,202.576,91.614,-122.009
1.994,1.431,-0.346,206.848,83.862,-146.179
1.647,1.389,-0.618,221.069,89.783,-165.955
1.205,1.215,-1.135,237.610,99.548,-185.791
0.815,1.010,-1.668,249.207,120.544,-199.768
0.469,0.724,-2.179,248.108,141.663,-207.581
0.277,0.429,-2.537,226.746,144.226,-206.421
0.201,0.246,-2.541,181.580,124.390,-201.111
0.168,0.418,-2.643,131.165,74.646,-199.524
-0.146,0.164,-1.882,115.234,0.244,-198.792
-0.329,0.309,-1.909,103.943,-58.105,-186.646
-0.627,-0.006,-1.947,109.192,-69.763,-175.781
-0.569,-0.155,-1.979,102.905,-42.297,-154.297
-0.511,-0.188,-1.978,79.895,-17.822,-134.583
-0.420,-0.192,-1.906,56.335,-9.644,-122.009
-0.380,-0.222,-1.788,44.250,-21.606,-113.403
-0.370,-0.274,-1.673,42.908,-43.518,-103.394
-0.403,-0.358,-1.593,44.556,-64.331,-92.102
-0.480,-0.482,-1.499,44.434,-79.285,-82.947
-0.553,-0.609,-1.349,35.461,-85.327,-75.867
-0.580,-0.696,-1.181,19.104,-79.041,-67.810
-0.446,-0.769,-1.022,4.028,-63.171,-57.800
-0.285,-0.808,-0.864,-2.747,-44.312,-43.030
-0.021,-0.758,-0.734,-6.470,-30.457,-25.696
0.257,-0.671,-0.610,-7.202,-26.123,-5.859
0.486,-0.568,-0.538,-2.441,-29.053,9.155
0.653,-0.518,-0.503,7.019,-32.776,15.442
0.744,-0.483,-0.496,14.954,-32.959,15.015
0.813,-0.438,-0.503,18.433,-29.663,11.780
0.848,-0.393,-0.520,17.212,-23.132,5.493
0.852,-0.368,-0.547,13.794,-15.442,-1.587
0.812,-0.367,-0.567,11.108,-9.155,-9.094
0.738,-0.381,-0.580,9.155,-4.700,-16.235
0.652,-0.414,-0.589,7.507,-1.831,-21.118
0.555,-0.440,-0.596,7.996,0.854,-23.437
0.469,-0.478,-0.619,9.888,4.700,-23.804
0.403,-0.519,-0.654,12.024,9.583,-21.973
0.368,-0.550,-0.685,12.634,15.198,-18.066
0.376,-0.564,-0.700,12.085,19.409,-12.756
0.419,-0.560,-0.705,12.268,21.362,-6.836
0.479,-0.544,-0.709,14.832,20.081,-1.221
0.526,-0.532,-0.707,18.066,16.724,2.502
0.568,-0.515,-0.703,20.508,13.123,4.456
0.592,-0.510,-0.698,21.790,10.559,4.333
0.596,-0.519,-0.691,21.545,8.789,2.747
0.589,-0.520,-0.688,19.653,8.728,0.183
0.579,-0.528,-0.682,16.968,10.437,-1.831
0.567,-0.532,-0.666,13.672,13.123,-3.601
0.549,-0.536,-0.655,11.963,15.137,-4.883
0.518,-0.553,-0.669,12.024,15.991,-5.066
0.502,-0.565,-0.688,11.108,17.151,-2.808
0.501,-0.576,-0.714,9.460,18.433,0.244
0.510,-0.577,-0.734,8.850,19.348,4.211
0.530,-0.564,-0.748,8.118,19.653,8.179
0.566,-0.540,-0.760,8.484,18.433,11.963
0.596,-0.514,-0.765,10.010,14.832,14.465
0.623,-0.491,-0.768,12.085,9.705,15.442
0.640,-0.474,-0.768,12.695,4.456,15.015
0.654,-0.454,-0.759,12.573,0.244,12.756
0.652,-0.442,-0.744,11.292,-2.380,8.667
0.642,-0.438,-0.729,9.644,-2.869,4.883
0.642,-0.455,-0.713,7.507,-1.648,1.709
0.640,-0.473,-0.706,6.409,0.183,-0.732
0.639,-0.493,-0.700,6.348,1.282,-1.709
0.632,-0.494,-0.710,6.775,1.038,-1.221
0.622,-0.488,-0.718,8.423,0.122,-0.488
0.615,-0.482,-0.740,9.521,-0.916,0.549
0.620,-0.477,-0.762,8.484,-0.977,1.221
0.625,-0.462,-0.769,6.409,-0.549,1.221
0.621,-0.441,-0.767,4.028,-1.038,0.000
0.615,-0.436,-0.759,2.502,-2.563,-1.099
0.605,-0.431,-0.745,0.732,-4.761,-2.502
0.594,-0.427,-0.720,-1.160,-7.080,-3.906
0.588,-0.430,-0.686,-2.380,-8.484,-4.822
0.585,-0.436,-0.652,-2.319,-9.216,-4.883
0.582,-0.437,-0.623,-0.916,-9.644,-4.517
0.582,-0.431,-0.599,1.953,-10.071,-3.052
0.582,-0.430,-0.589,5.493,-9.277,-1.709
0.579,-0.431,-0.596,8.606,-7.080,-0.671
0.579,-0.429,-0.618,10.620,-3.845,-0.427
0.578,-0.437,-0.645,11.169,0.122,-0.854
0.579,-0.452,-0.679,10.803,3.784,-1.404
0.580,-0.460,-0.712,10.803,6.470,-1.587
0.582,-0.459,-0.750,10.376,7.568,-1.526
0.590,-0.462,-0.781,9.338,7.629,-1.343
0.602,-0.464,-0.797,7.568,6.958,-1.282
0.609,-0.462,-0.802,5.371,5.371,-1.587
0.614,-0.466,-0.800,3.540,3.357,-2.319
0.613,-0.474,-0.787,2.625,0.977,-2.502
0.603,-0.474,-0.767,1.831,-1.465,-2.869
0.596,-0.469,-0.742,0.977,-3.418,-2.869
0.593,-0.457,-0.718,0.793,-5.005,-2.563
0.588,-0.447,-0.697,1.221,-6.042,-2.319
0.589,-0.443,-0.684,2.441,-6.897,-1.953
0.593,-0.449,-0.677,4.089,-7.202,-1.099
0.592,-0.453,-0.677,5.249,-6.592,-0.732
0.598,-0.456,-0.682,5.554,-5.127,-0.305
0.605,-0.456,-0.693,5.127,-3.174,-0.183
0.610,-0.450,-0.703,4.700,-2.258,-0.671
0.606,-0.452,-0.719,4.089,-1.526,-1.465
0.597,-0.448,-0.726,3.540,-1.465,-2.075
0.585,-0.433,-0.728,3.052,-2.075,-2.502
0.575,-0.423,-0.728,2.991,-2.380,-2.625
0.571,-0.425,-0.727,3.174,-2.625,-2.441
0.567,-0.436,-0.724,2.930,-2.991,-2.502
0.563,-0.446,-0.718,2.686,-3.174,-2.502
0.562,-0.451,-0.712,2.625,-3.113,-2.075
0.562,-0.452,-0.713,2.625,-2.380,-1.709
0.562,-0.453,-0.719,2.625,-1.343,-1.282
0.560,-0.456,-0.729,2.075,-0.061,-0.854
0.558,-0.459,-0.728,0.977,0.793,-0.732
0.554,-0.451,-0.727,-0.244,1.160,-0.366
0.560,-0.446,-0.721,-0.366,1.221,0.488
0.572,-0.440,-0.714,-0.549,1.038,1.343
-0.333,0.808,2.939,-120.544,-30.090,203.369
-0.433,1.187,3.191,-67.017,42.908,203.857
-0.497,1.513,3.267,-4.578,126.953,197.266
-0.566,1.632,3.044,59.448,214.478,192.871
-0.601,1.633,2.628,122.681,295.349,189.758
-0.525,1.691,2.182,169.861,365.906,185.364
-0.465,1.795,1.800,200.073,419.312,184.998
-0.418,2.025,1.404,219.421,454.285,186.401
-0.337,2.241,1.023,236.816,476.624,183.105
-0.250,2.532,0.569,258.362,496.826,166.565
-0.124,2.652,0.174,294.983,504.456,143.066
-0.079,2.551,-0.475,322.815,499.939,119.629
-0.032,2.237,-0.910,318.542,515.564,92.590
-0.014,1.933,-1.223,271.484,536.743,56.213
0.022,1.719,-1.521,195.374,543.579,20.264
0.099,1.502,-1.795,116.272,532.104,-10.437
0.213,1.370,-2.031,59.265,497.620,-29.297
0.329,1.282,-2.147,35.034,443.359,-32.104
0.342,1.173,-2.108,43.823,374.023,-26.611
0.224,1.056,-2.041,71.045,295.654,-21.912
0.044,1.002,-2.029,95.520,228.455,-20.630
-0.035,0.932,-2.010,102.417,189.636,-21.606
0.054,0.774,-1.949,96.497,171.265,-23.987
0.250,0.662,-1.808,89.844,154.663,-28.503
0.443,0.615,-1.607,87.952,127.014,-29.724
0.592,0.604,-1.456,88.623,83.557,-24.109
0.673,0.590,-1.274,85.205,36.133,-16.113
0.664,0.550,-1.062,76.233,-1.038,-12.268
0.614,0.526,-0.864,65.613,-25.085,-11.902
0.596,0.499,-0.682,51.453,-34.485,-11.108
0.590,0.477,-0.518,33.081,-30.029,-8.118
0.598,0.490,-0.407,14.587,-16.357,-3.662
0.632,0.513,-0.343,0.305,1.587,1.099
0.678,0.535,-0.319,-7.141,19.775,4.639
0.719,0.557,-0.325,-6.592,33.569,6.714
0.755,0.565,-0.383,0.854,41.199,7.385
0.821,0.540,-0.488,10.681,42.053,4.822
0.860,0.486,-0.568,17.517,37.231,-1.953
0.860,0.447,-0.596,18.494,29.480,-10.376
0.839,0.429,-0.614,17.578,18.555,-16.418
0.810,0.415,-0.611,17.822,6.409,-17.334
0.788,0.385,-0.583,17.883,-3.662,-15.015
0.764,0.380,-0.531,15.625,-9.583,-11.230
0.763,0.397,-0.488,8.423,-10.742,-7.385
0.772,0.434,-0.443,-0.916,-8.179,-3.479
0.803,0.489,-0.413,-7.812,-4.761,-0.183
0.844,0.542,-0.396,-8.850,-3.601,2.075
0.859,0.580,-0.390,-7.812,-4.272,2.258
0.870,0.605,-0.386,-6.714,-6.409,1.221
0.875,0.605,-0.386,-5.005,-9.705,-1.282
0.886,0.572,-0.375,-2.930,-12.268,-4.028
0.855,0.538,-0.364,0.488,-14.893,-6.104
0.860,0.503,-0.333,3.845,-17.456,-6.531
0.803,0.476,-0.310,4.150,-18.250,-6.714
0.793,0.474,-0.292,1.892,-15.442,-6.714
0.781,0.453,-0.282,-0.427,-10.864,-7.019
0.780,0.443,-0.278,-0.977,-5.432,-6.836
0.779,0.433,-0.292,0.183,-2.197,-5.554
0.794,0.410,-0.309,0.488,-0.488,-3.357
0.797,0.395,-0.322,-1.282,0.977,-1.770
0.790,0.399,-0.333,-2.808,1.831,-0.732
0.788,0.399,-0.350,-3.113,1.892,0.732
0.790,0.394,-0.364,-3.540,1.587,2.319
0.794,0.411,-0.376,-3.784,1.343,3.845
0.803,0.443,-0.379,-3.113,0.671,5.615
0.814,0.468,-0.387,-2.197,0.122,6.592
0.822,0.489,-0.396,-0.916,-0.244,5.920
0.838,0.505,-0.400,0.488,-0.793,4.150
0.857,0.508,-0.393,0.977,-1.648,1.526
0.871,0.503,-0.377,1.160,-2.502,-0.977
0.867,0.498,-0.363,3.113,-3.845,-2.075
0.858,0.480,-0.349,5.127,-5.249,-3.052
0.846,0.465,-0.336,5.981,-5.615,-3.052
0.835,0.460,-0.323,5.127,-5.005,-2.380
0.823,0.456,-0.319,2.991,-3.418,-1.648
0.817,0.460,-0.323,0.122,-1.343,-0.305
0.818,0.472,-0.329,-1.953,0.793,1.404
0.825,0.483,-0.334,-2.808,2.441,2.258
0.830,0.489,-0.337,-2.136,3.479,2.136
0.828,0.498,-0.346,-0.488,3.784,1.221
0.829,0.500,-0.359,2.319,3.357,0.244
0.828,0.488,-0.374,5.798,1.953,-0.977
0.815,0.467,-0.389,8.484,0.549,-1.587
0.810,0.453,-0.395,9.338,-0.854,-1.953
0.807,0.434,-0.400,8.484,-2.197,-1.465
0.809,0.420,-0.395,5.554,-2.747,-0.427
0.807,0.424,-0.381,1.282,-2.869,0.427
0.810,0.445,-0.363,-1.770,-2.930,2.075
0.817,0.462,-0.344,-3.113,-2.869,3.906
0.821,0.481,-0.332,-3.601,-2.380,5.371
0.826,0.503,-0.319,-3.235,-1.526,6.348
0.837,0.522,-0.316,-3.235,-0.427,6.042
0.848,0.534,-0.316,-3.296,0.793,4.150
0.856,0.538,-0.320,-2.686,1.831,1.709
0.861,0.530,-0.331,-0.732,1.892,-0.244
0.863,0.510,-0.347,1.831,1.465,-1.648
0.861,0.490,-0.356,4.272,0.854,-2.258
0.856,0.469,-0.360,5.432,0.244,-2.319
0.842,0.457,-0.370,4.883,-0.610,-2.014
0.830,0.456,-0.371,4.089,-1.099,-0.793
0.825,0.461,-0.368,2.808,-0.488,0.732
0.822,0.470,-0.362,0.366,0.122,1.404
0.819,0.481,-0.357,-1.892,0.732,1.465
0.819,0.489,-0.348,-3.235,1.221,1.099
0.821,0.495,-0.336,-3.418,1.709,0.549
0.827,0.494,-0.335,-2.197,1.648,-0.122
0.830,0.485,-0.335,-0.305,1.221,-1.160
0.829,0.470,-0.332,1.343,0.977,-2.014
0.825,0.458,-0.332,3.113,0.671,-2.075
0.819,0.448,-0.337,5.127,0.244,-1.404
0.816,0.443,-0.342,6.165,0.549,-0.366
0.813,0.439,-0.345,6.042,1.404,1.038
0.817,0.444,-0.352,5.493,2.075,2.197
0.821,0.454,-0.352,4.333,2.441,3.479
0.817,0.465,-0.346,3.174,2.991,4.333
0.817,0.477,-0.349,2.502,3.784,4.395
0.825,0.484,-0.353,2.441,4.517,4.150
0.832,0.488,-0.356,2.380,5.066,3.601
0.830,0.492,-0.355,2.197,5.127,2.930
0.832,-0.814,1.080,159.363,-72.876,-35.217
0.776,-0.913,1.158,178.101,-69.275,-29.907
0.678,-1.024,1.196,197.510,-67.627,-22.888
0.550,-1.075,1.221,215.088,-66.772,-12.695
0.391,-1.087,1.215,228.882,-62.683,1.099
0.245,-1.060,1.191,240.784,-52.551,19.714
0.139,-0.980,1.177,253.052,-37.659,43.762
0.109,-0.852,1.155,267.944,-22.644,72.388
0.121,-0.723,1.074,286.987,-14.282,101.746
0.102,-0.562,0.950,306.763,-11.658,125.305
0.083,-0.393,0.845,324.585,-9.216,141.541
0.057,-0.233,0.706,339.478,-9.155,152.588
0.089,-0.124,0.545,347.168,-11.414,159.485
0.148,-0.088,0.376,347.412,-19.409,161.255
0.210,0.030,0.271,336.121,-32.532,162.231
0.275,0.215,0.207,313.354,-44.434,175.415
0.337,0.509,0.139,279.358,-48.096,202.576
0.450,0.801,0.049,233.337,-35.095,234.436
0.554,1.113,0.033,176.453,-6.287,259.094
0.664,1.434,-0.035,117.554,31.738,267.273
0.830,1.697,-0.199,69.580,71.716,256.104
1.044,1.901,-0.400,37.415,98.206,229.980
1.277,1.970,-0.490,17.517,104.553,195.618
1.447,1.932,-0.455,14.160,82.520,160.706
1.426,1.877,-0.411,32.837,33.508,130.798
1.251,1.840,-0.345,62.683,-16.907,112.732
1.112,1.700,-0.278,82.153,-46.997,100.098
1.079,1.543,-0.228,88.440,-56.519,85.449
1.036,1.343,-0.195,81.055,-52.185,73.059
1.084,1.142,-0.156,55.603,-39.001,68.604
1.320,1.036,-0.007,10.010,-23.132,71.960
1.460,1.065,0.278,-44.250,-19.287,81.055
1.339,1.222,0.475,-95.459,-19.348,84.167
1.165,1.359,0.535,-123.047,-4.333,75.989
1.094,1.432,0.486,-109.192,26.611,57.617
1.009,1.433,0.185,-66.040,61.096,35.522
1.129,1.216,-0.034,-17.273,86.487,20.752
1.174,0.972,-0.266,19.958,83.618,6.409
1.201,0.729,-0.402,44.800,66.223,-5.188
1.155,0.525,-0.500,57.434,38.879,-15.015
1.031,0.368,-0.533,55.420,9.888,-23.071
0.917,0.256,-0.489,41.077,-11.047,-26.611
0.827,0.184,-0.436,22.339,-21.973,-24.536
0.801,0.172,-0.337,6.226,-22.949,-18.066
0.816,0.206,-0.224,-6.958,-20.386,-11.292
0.849,0.263,-0.141,-17.334,-20.142,-5.127
0.889,0.338,-0.052,-22.827,-19.836,-0.854
0.933,0.393,0.046,-22.156,-16.907,2.014
0.954,0.415,0.117,-15.747,-13.794,2.686
0.976,0.408,0.163,-4.639,-11.536,2.441
0.987,0.388,0.180,6.958,-9.399,1.709
0.998,0.357,0.177,16.479,-8.789,-0.427
1.001,0.314,0.167,21.912,-8.789,-2.625
0.984,0.292,0.154,22.949,-9.888,-4.150
0.956,0.285,0.173,19.348,-9.521,-4.761
0.933,0.301,0.186,14.465,-7.080,-3.601
0.921,0.318,0.184,9.521,-2.930,-1.709
0.906,0.340,0.177,4.028,2.563,0.366
0.898,0.367,0.155,-0.183,9.216,1.892
0.901,0.405,0.128,-1.221,14.954,3.296
0.896,0.434,0.101,-0.244,18.799,3.906
0.904,0.437,0.060,3.845,20.203,3.845
0.910,0.429,0.019,9.521,18.860,2.808
0.903,0.400,-0.006,13.367,15.930,1.526
0.893,0.379,-0.027,14.404,12.939,0.549
0.893,0.364,-0.046,14.160,9.766,0.793
0.911,0.352,-0.070,12.024,6.714,1.953
0.927,0.336,-0.076,8.118,3.784,3.601
0.935,0.345,-0.060,1.709,0.916,4.456
0.936,0.382,-0.016,-4.517,-1.404,4.822
0.933,0.425,0.034,-9.094,-2.319,4.578
0.939,0.449,0.069,-9.521,-2.014,3.113
0.940,0.454,0.092,-5.127,-1.038,0.427
0.940,0.431,0.091,2.319,0.000,-1.770
0.938,0.394,0.072,9.399,0.549,-3.052
0.931,0.359,0.049,13.855,1.099,-3.113
0.928,0.336,0.027,15.747,1.221,-2.563
0.928,0.326,0.002,14.404,1.343,-1.587
0.931,0.313,-0.021,8.545,0.916,-1.160
0.939,0.323,-0.013,0.366,0.732,-0.549
0.944,0.352,0.011,-7.629,0.793,0.366
0.948,0.386,0.036,-11.047,0.000,1.831
0.948,0.405,0.063,-9.583,-0.916,2.136
0.942,0.415,0.082,-5.554,-1.160,1.038
0.938,0.419,0.086,-1.038,-0.793,-0.366
0.929,0.413,0.080,4.211,-0.305,-0.610
0.921,0.401,0.063,8.423,0.183,-0.671
0.917,0.386,0.048,10.437,1.099,-0.610
0.922,0.375,0.034,10.620,1.709,0.061
0.926,0.359,0.018,9.521,1.465,0.732
0.933,0.350,0.004,6.775,0.244,0.854
0.933,0.351,0.009,2.625,-0.916,1.465
0.933,0.370,0.028,-2.869,-1.221,2.014
0.936,0.394,0.041,-6.104,-1.770,2.441
0.944,0.414,0.061,-6.226,-1.587,1.953
0.950,0.425,0.088,-4.333,-1.038,0.427
0.948,0.423,0.101,-0.854,-0.854,-1.404
0.951,0.410,0.103,3.845,-0.793,-2.075
0.943,0.389,0.097,7.263,-0.061,-2.808
0.930,0.371,0.087,8.484,1.343,-3.418
0.930,0.361,0.072,7.996,3.296,-2.930
0.928,0.351,0.053,5.554,4.883,-2.258
0.919,0.348,0.036,2.014,5.981,-1.648
0.917,0.350,0.021,0.061,6.714,0.061
0.921,0.349,0.009,-0.732,6.470,1.831
0.928,0.360,0.000,-1.099,5.371,2.991
0.927,0.385,0.010,-1.282,3.906,2.808
0.931,0.399,0.027,-0.061,1.465,1.770
0.931,0.393,0.034,2.808,-1.282,0.488
0.925,0.373,0.044,5.859,-3.113,-0.183
0.919,0.363,0.058,6.226,-3.662,-0.854
0.920,0.354,0.066,5.249,-3.113,-0.793
0.922,0.352,0.070,4.456,-2.075,-0.061
0.920,0.354,0.073,2.869,-0.366,1.404
0.922,0.361,0.068,0.488,1.892,2.869
0.928,0.379,0.054,-0.549,4.272,4.333
0.940,0.388,0.043,-1.099,6.165,4.761
0.945,0.394,0.030,-1.099,6.409,4.456
0.946,0.408,0.018,-1.038,5.859,4.272
-0.016,-0.612,2.016,-105.408,-141.907,125.122
-0.154,-0.475,2.276,-118.530,-109.314,147.217
-0.267,-0.276,2.474,-132.202,-57.678,168.945
-0.322,-0.061,2.585,-141.541,3.357,192.078
-0.336,0.251,2.629,-141.602,66.833,214.966
-0.279,0.709,2.684,-131.104,129.456,227.783
-0.206,1.152,2.664,-103.699,190.857,220.947
-0.188,1.467,2.566,-40.161,240.662,205.383
-0.178,1.686,2.371,52.185,271.606,192.078
-0.221,1.787,2.098,141.846,288.086,182.556
-0.309,1.757,1.839,207.520,301.819,178.711
-0.388,1.684,1.523,245.911,319.824,178.040
-0.448,1.644,1.170,262.451,348.633,177.612
-0.539,1.777,0.894,262.085,387.939,175.964
-0.586,1.769,0.372,252.991,427.795,177.368
-0.514,1.932,-0.137,236.084,477.234,173.096
-0.470,2.195,-0.508,215.149,530.701,160.583
-0.316,2.374,-1.026,187.195,548.828,141.296
-0.109,2.367,-1.884,143.494,542.542,112.183
0.237,2.071,-2.106,93.567,554.382,67.017
0.487,1.886,-1.957,47.974,541.870,5.676
0.491,1.736,-1.864,31.555,479.309,-46.082
0.352,1.669,-1.788,60.791,381.409,-75.562
0.157,1.540,-1.869,121.216,271.118,-70.251
0.019,1.346,-2.042,180.420,184.448,-43.213
0.034,1.106,-2.062,210.937,139.832,-15.076
0.099,0.874,-1.948,199.646,123.840,-0.916
0.201,0.756,-1.750,160.034,118.652,-1.465
0.295,0.745,-1.554,114.746,111.328,-8.301
0.362,0.758,-1.402,78.369,98.450,-11.963
0.409,0.750,-1.296,54.565,82.275,-11.047
0.414,0.754,-1.210,42.358,64.270,-7.874
0.419,0.777,-1.131,31.616,50.964,-3.357
0.444,0.794,-1.066,19.897,43.945,-0.061
0.486,0.790,-1.023,12.634,38.635,1.892
0.540,0.767,-0.957,9.949,33.691,1.465
0.607,0.725,-0.882,11.353,27.039,-2.319
0.662,0.675,-0.830,16.235,16.968,-7.690
0.718,0.604,-0.783,23.560,5.920,-13.062
0.763,0.533,-0.729,30.701,-6.348,-16.235
0.768,0.500,-0.670,31.799,-19.531,-16.052
0.767,0.483,-0.617,24.902,-29.480,-13.733
0.773,0.476,-0.540,12.512,-33.997,-10.620
0.785,0.479,-0.454,0.183,-34.302,-6.836
0.796,0.505,-0.376,-9.399,-33.447,-2.991
0.811,0.529,-0.319,-16.479,-31.982,0.488
0.823,0.561,-0.266,-20.996,-29.358,2.625
0.839,0.578,-0.234,-22.217,-25.696,2.075
0.849,0.583,-0.199,-19.714,-21.240,-0.549
0.847,0.583,-0.163,-13.611,-17.212,-3.540
0.837,0.580,-0.156,-6.165,-13.367,-6.042
0.842,0.568,-0.179,1.709,-9.583,-7.996
0.833,0.543,-0.213,9.460,-6.897,-10.010
0.822,0.513,-0.241,13.916,-5.371,-11.841
0.802,0.482,-0.263,14.282,-4.456,-12.939
0.778,0.466,-0.269,12.390,-3.174,-12.817
0.766,0.465,-0.256,9.277,-1.160,-11.902
0.746,0.458,-0.244,6.531,1.587,-10.742
0.735,0.459,-0.250,6.409,5.066,-9.155
0.732,0.461,-0.264,8.484,8.667,-6.897
0.737,0.457,-0.289,9.705,12.085,-4.272
0.746,0.464,-0.325,9.888,13.916,-1.343
0.752,0.481,-0.352,9.155,14.709,1.404
0.761,0.495,-0.371,7.446,14.893,2.930
0.781,0.512,-0.388,6.592,13.123,4.333
0.796,0.528,-0.400,7.019,9.888,5.371
0.798,0.534,-0.404,7.874,6.226,5.066
0.790,0.537,-0.391,8.362,2.686,3.540
0.771,0.545,-0.376,8.484,0.244,2.197
0.766,0.564,-0.368,8.179,-0.061,1.343
0.774,0.575,-0.364,8.240,1.587,1.221
0.788,0.583,-0.368,8.484,3.479,1.404
0.795,0.590,-0.373,8.057,5.249,1.465
0.808,0.594,-0.383,7.385,6.226,1.221
0.814,0.591,-0.391,5.066,6.470,0.793
0.811,0.585,-0.396,2.258,5.798,0.122
0.811,0.573,-0.395,0.854,4.700,0.183
0.810,0.563,-0.388,0.122,3.784,0.488
0.812,0.562,-0.380,-1.465,2.502,0.793
0.804,0.573,-0.366,-3.479,1.282,1.099
0.798,0.584,-0.350,-5.005,1.099,0.427
0.790,0.592,-0.340,-4.822,1.221,-1.953
0.792,0.585,-0.336,-1.526,0.854,-3.540
0.785,0.572,-0.340,3.601,-0.427,-3.967
0.775,0.554,-0.349,7.324,-1.892,-3.845
0.766,0.528,-0.354,8.240,-2.136,-3.113
0.768,0.512,-0.361,6.775,-1.892,-2.136
0.764,0.507,-0.368,3.906,-1.221,-0.916
0.775,0.506,-0.370,1.160,-0.122,0.549
0.782,0.512,-0.371,-1.404,-0.061,1.892
0.781,0.535,-0.358,-3.906,-0.610,2.869
0.786,0.569,-0.334,-5.981,-1.038,2.869
0.790,0.600,-0.316,-6.836,-1.038,1.770
0.798,0.613,-0.300,-5.005,-0.427,-1.282
0.801,0.605,-0.292,-0.916,0.793,-4.150
0.798,0.581,-0.299,4.150,1.526,-6.348
0.793,0.552,-0.317,8.728,2.258,-7.446
0.790,0.518,-0.338,10.620,2.930,-7.446
0.783,0.494,-0.354,9.827,4.028,-6.470
0.783,0.483,-0.364,6.836,5.249,-4.822
0.785,0.484,-0.377,3.296,5.371,-2.197
0.787,0.485,-0.389,-0.366,4.700,0.854
0.796,0.498,-0.386,-4.333,4.211,2.686
0.802,0.521,-0.380,-7.019,2.747,3.723
0.797,0.547,-0.365,-6.653,0.305,3.662
0.791,0.563,-0.339,-4.211,-1.831,2.319
0.782,0.574,-0.330,0.183,-3.052,0.183
0.775,0.568,-0.324,5.554,-3.479,-1.526
0.769,0.548,-0.322,10.071,-3.235,-2.502
0.760,0.529,-0.328,12.024,-2.197,-2.502
0.764,0.513,-0.341,11.658,-0.610,-1.831
0.770,0.497,-0.348,8.606,0.977,-0.671
0.771,0.490,-0.357,4.211,1.770,1.465
0.771,0.498,-0.352,-0.061,2.869,3.967
0.774,0.519,-0.350,-3.235,3.784,6.409
0.792,0.545,-0.351,-5.310,4.089,8.240
0.804,0.574,-0.340,-6.836,4.150,9.155
0.806,0.613,-0.328,-7.874,3.967,7.324
0.816,0.643,-0.326,-6.042,3.418,3.967
0.863,-0.695,1.087,86.304,-36.133,-21.667
0.864,-0.685,1.192,115.906,-30.762,-20.752
0.848,-0.719,1.257,151.611,-27.527,-21.240
0.799,-0.796,1.281,190.430,-26.428,-21.362
0.712,-0.869,1.284,228.149,-29.541,-18.433
0.596,-0.919,1.292,256.775,-33.264,-9.277
0.458,-0.920,1.292,276.062,-33.936,6.348
0.309,-0.866,1.253,293.640,-30.212,27.832
0.198,-0.774,1.182,311.401,-21.362,50.659
0.136,-0.649,1.111,327.087,-11.108,71.594
0.120,-0.503,1.054,340.698,-4.700,88.623
0.116,-0.354,0.983,356.140,-4.883,104.980
0.108,-0.227,0.901,373.291,-9.583,119.751
0.098,-0.114,0.790,392.395,-18.433,133.301
0.075,0.010,0.650,407.471,-28.198,147.400
0.069,0.094,0.502,408.997,-34.546,161.316
0.105,0.167,0.338,394.348,-39.490,173.035
0.141,0.350,0.214,363.831,-41.260,191.589
0.199,0.618,0.145,312.744,-31.433,220.947
0.300,0.856,0.051,252.258,-11.414,249.268
0.447,1.101,-0.059,204.224,9.155,271.912
0.553,1.394,-0.261,167.175,23.010,290.833
0.657,1.643,-0.477,122.925,36.194,300.964
0.776,1.963,-0.549,65.552,53.406,290.039
0.952,2.312,-0.504,11.230,68.054,250.122
1.109,2.511,-0.454,-7.812,67.871,193.176
1.177,2.494,-0.449,28.992,43.457,144.104
1.107,2.345,-0.457,95.947,3.479,117.676
1.026,2.075,-0.543,143.677,-28.625,106.567
1.037,1.780,-0.591,160.706,-45.410,97.351
1.021,1.460,-0.550,150.574,-52.246,90.210
0.964,1.246,-0.542,111.694,-42.480,89.172
0.974,1.119,-0.395,55.969,-25.391,89.966
1.006,1.218,-0.443,-4.089,-19.592,88.074
1.122,1.338,-0.294,-49.805,-0.549,82.397
1.412,1.580,-0.097,-71.838,10.315,71.228
1.594,1.644,0.230,-66.345,-7.019,56.824
1.600,1.542,0.416,-31.921,-47.729,38.147
1.483,1.267,0.532,19.653,-84.717,12.695
1.197,0.927,0.523,69.397,-96.436,-11.169
0.905,0.645,0.440,86.975,-79.468,-24.719
0.773,0.420,0.292,74.341,-37.659,-26.062
0.833,0.337,0.085,44.983,7.507,-19.287
0.899,0.345,0.013,8.972,41.748,-11.414
0.931,0.389,-0.132,-13.977,61.035,-1.282
0.973,0.436,-0.197,-31.372,62.073,8.606
0.949,0.499,-0.222,-48.462,53.162,10.071
0.913,0.532,-0.206,-50.964,40.222,8.728
0.903,0.506,-0.180,-38.269,26.489,6.653
0.875,0.506,-0.133,-22.339,14.099,3.601
0.839,0.483,-0.089,-7.080,3.174,0.854
0.827,0.470,-0.081,7.690,-5.005,-1.831
0.826,0.453,-0.075,16.968,-9.949,-4.761
0.836,0.440,-0.055,18.616,-11.902,-7.141
0.860,0.428,-0.019,14.832,-12.817,-7.935
0.880,0.412,0.021,9.705,-14.526,-7.568
0.891,0.410,0.077,2.808,-15.503,-6.714
0.886,0.427,0.142,-5.127,-14.771,-5.554
0.888,0.450,0.190,-9.583,-12.878,-4.211
0.892,0.461,0.233,-8.728,-10.864,-2.930
0.878,0.459,0.250,-5.981,-7.874,-2.747
0.865,0.464,0.244,-1.709,-3.174,-2.136
0.879,0.473,0.212,2.625,2.075,-1.099
0.905,0.482,0.179,5.615,7.385,-1.221
0.927,0.498,0.148,7.324,11.292,-2.808
0.948,0.496,0.118,10.498,12.817,-5.188
0.953,0.464,0.091,14.221,11.658,-8.118
0.938,0.420,0.078,16.846,9.277,-10.620
0.901,0.382,0.060,17.517,7.324,-11.536
0.878,0.349,0.046,16.968,6.592,-9.888
0.860,0.324,0.032,15.015,6.653,-6.287
0.845,0.337,0.019,11.658,6.714,-2.014
0.837,0.372,0.008,6.897,8.606,1.892
0.846,0.418,-0.007,2.686,11.292,4.761
0.870,0.456,-0.022,0.000,12.634,6.653
0.893,0.485,-0.018,-1.831,12.146,6.531
0.910,0.503,-0.014,-2.014,9.949,5.127
0.916,0.507,-0.010,0.610,5.981,2.930
0.905,0.502,-0.002,4.211,2.014,-0.061
0.889,0.478,-0.002,6.653,-0.732,-2.319
0.881,0.455,-0.001,7.751,-2.014,-3.296
0.881,0.441,-0.001,7.751,-2.319,-3.540
0.882,0.431,0.004,6.409,-2.747,-2.502
0.887,0.434,0.024,3.906,-3.174,0.061
0.892,0.451,0.039,-0.305,-2.563,2.319
0.903,0.473,0.048,-4.150,-0.610,2.747
0.910,0.481,0.055,-6.165,1.526,2.014
0.917,0.482,0.058,-7.019,2.930,1.526
0.922,0.493,0.055,-6.531,4.150,0.977
0.927,0.497,0.051,-3.784,4.517,-0.244
0.928,0.485,0.045,0.977,3.357,-1.831
0.916,0.466,0.036,5.920,1.099,-2.563
0.906,0.447,0.028,8.057,-0.610,-2.502
0.897,0.432,0.027,7.263,-1.099,-2.319
0.898,0.421,0.023,5.188,-1.404,-1.831
0.898,0.419,0.028,2.075,-1.587,-0.488
0.896,0.428,0.041,-1.404,-1.160,0.000
0.892,0.449,0.067,-3.113,-0.793,0.183
0.887,0.469,0.081,-2.258,-0.793,0.061
0.880,0.478,0.086,0.000,-0.183,-0.671
0.879,0.478,0.079,3.174,0.671,-1.770
0.875,0.468,0.073,6.165,1.465,-2.380
0.877,0.459,0.067,7.996,2.197,-2.380
0.880,0.444,0.057,8.606,2.686,-2.319
0.883,0.424,0.039,8.423,2.991,-1.831
0.889,0.408,0.030,6.165,3.235,-1.221
0.894,0.404,0.027,2.380,3.418,0.366
0.899,0.410,0.019,-0.061,3.052,2.747
0.904,0.422,0.018,-1.343,2.686,3.967
0.909,0.438,0.020,-2.502,2.014,4.639
0.913,0.452,0.020,-3.174,0.916,3.906
0.916,0.464,0.033,-3.052,-0.305,2.441
0.919,0.481,0.051,-1.526,-1.892,1.587
0.913,0.492,0.063,0.427,-2.991,0.732
0.910,0.497,0.075,1.709,-3.235,-0.854
0.909,0.485,0.081,2.930,-2.502,-2.197
0.908,0.464,0.082,4.395,-1.831,-2.686
0.904,0.447,0.077,4.822,-0.854,-2.625
0.899,0.431,0.071,4.578,0.305,-1.953
0.275,0.596,1.644,109.619,135.132,187.744
0.220,0.674,1.552,125.244,151.123,185.364
0.153,0.716,1.478,140.320,164.612,182.434
0.102,0.785,1.352,153.381,177.429,180.115
0.079,0.887,1.184,163.696,193.542,181.213
0.077,1.040,1.009,171.448,215.637,186.951
0.085,1.255,0.942,177.917,242.920,193.604
0.045,1.463,0.445,185.730,267.517,200.500
0.149,1.641,0.188,188.904,303.711,203.491
0.278,1.743,-0.099,186.890,332.947,194.214
0.396,1.785,-0.411,166.687,345.459,174.316
0.492,1.792,-0.633,133.240,350.098,149.536
0.527,1.794,-0.816,96.497,349.731,123.230
0.537,1.820,-0.951,71.716,343.201,97.717
0.496,1.843,-1.131,65.186,331.177,76.660
0.484,1.780,-1.288,72.937,319.946,59.753
0.471,1.702,-1.328,82.214,306.335,43.579
0.468,1.616,-1.371,88.257,283.936,30.579
0.508,1.506,-1.380,95.215,254.456,22.705
0.549,1.338,-1.393,104.858,218.872,18.860
0.567,1.171,-1.384,111.328,181.152,13.550
0.537,1.055,-1.369,111.755,145.447,6.775
0.477,0.986,-1.321,105.835,116.211,-0.122
0.412,0.934,-1.273,95.581,95.520,-4.639
0.370,0.893,-1.232,83.496,83.191,-5.432
0.374,0.830,-1.211,70.007,76.599,-2.197
0.438,0.741,-1.179,54.138,72.876,0.916
0.535,0.681,-1.120,39.246,65.735,2.930
0.622,0.655,-1.077,25.330,52.307,4.150
0.676,0.619,-1.008,11.719,35.156,3.723
0.698,0.636,-0.899,0.977,16.602,1.038
0.712,0.669,-0.774,-4.639,-1.465,-1.831
0.730,0.662,-0.649,-4.456,-17.273,-4.822
0.743,0.627,-0.524,3.540,-31.067,-6.958
0.745,0.582,-0.445,14.893,-41.565,-7.385
0.748,0.523,-0.386,21.667,-46.509,-5.615
0.761,0.478,-0.344,18.738,-44.983,-2.563
0.787,0.454,-0.309,7.141,-38.940,1.404
0.816,0.463,-0.273,-7.629,-30.884,5.493
0.842,0.497,-0.243,-21.545,-23.804,9.094
0.853,0.546,-0.208,-30.762,-19.043,11.719
0.843,0.610,-0.175,-32.837,-16.418,13.550
0.834,0.671,-0.158,-28.259,-14.465,13.062
0.833,0.712,-0.146,-19.531,-11.230,9.705
0.832,0.708,-0.148,-9.094,-6.836,4.089
0.834,0.685,-0.162,1.709,-2.747,-1.526
0.831,0.648,-0.184,10.986,0.854,-5.249
0.830,0.611,-0.214,16.846,3.479,-7.446
0.818,0.569,-0.237,19.348,5.188,-9.583
0.793,0.535,-0.258,21.606,5.493,-10.620
0.765,0.504,-0.281,22.339,4.639,-10.132
0.744,0.479,-0.307,20.386,3.845,-7.141
0.724,0.474,-0.336,15.381,4.272,-3.662
0.714,0.488,-0.351,8.423,6.042,-0.671
0.711,0.518,-0.353,0.305,7.874,2.014
0.719,0.556,-0.348,-6.409,9.705,3.967
0.737,0.600,-0.344,-10.559,11.292,4.028
0.768,0.628,-0.344,-10.010,11.963,3.113
0.805,0.636,-0.350,-6.165,10.437,1.221
0.826,0.617,-0.348,-0.305,6.836,-0.732
0.823,0.591,-0.344,5.127,1.892,-2.441
0.810,0.567,-0.330,9.583,-2.808,-2.502
0.791,0.550,-0.312,10.254,-5.615,-1.770
0.776,0.547,-0.295,7.568,-5.493,-0.610
0.771,0.558,-0.277,3.540,-3.540,0.732
0.771,0.576,-0.267,0.305,-1.160,2.380
0.763,0.602,-0.262,-2.136,1.892,3.601
0.762,0.634,-0.267,-2.502,5.188,4.272
0.775,0.652,-0.280,-1.099,8.118,3.235
0.786,0.653,-0.298,2.136,9.766,1.465
0.790,0.638,-0.320,5.920,9.583,-0.427
0.789,0.616,-0.338,7.507,8.667,-1.892
0.786,0.603,-0.351,6.653,7.202,-2.930
0.782,0.596,-0.356,5.920,5.188,-3.052
0.782,0.585,-0.352,4.395,3.967,-3.845
0.782,0.570,-0.348,3.113,2.319,-3.601
0.782,0.559,-0.339,2.747,-0.061,-2.625
0.779,0.553,-0.321,2.380,-1.953,-1.831
0.767,0.557,-0.298,0.916,-2.563,-1.404
0.760,0.567,-0.285,-0.244,-2.319,-0.916
0.759,0.574,-0.274,-1.099,-0.916,-0.977
0.770,0.584,-0.272,-1.343,1.343,-1.221
0.779,0.590,-0.279,-1.221,2.747,-1.770
0.789,0.590,-0.289,-0.366,3.296,-2.563
0.789,0.582,-0.299,1.282,2.991,-3.235
0.785,0.568,-0.306,3.296,2.441,-3.113
0.778,0.555,-0.311,4.333,2.258,-2.625
0.770,0.551,-0.314,4.578,2.747,-1.831
0.767,0.546,-0.312,3.418,3.967,-0.732
0.767,0.544,-0.312,1.770,4.761,0.732
0.764,0.555,-0.312,0.427,5.188,1.526
0.769,0.575,-0.312,0.610,5.249,2.075
0.776,0.591,-0.307,0.732,4.639,1.587
0.777,0.593,-0.302,0.793,3.540,0.610
0.778,0.599,-0.296,1.099,2.441,-0.366
0.779,0.598,-0.293,1.831,1.648,-0.977
0.780,0.589,-0.296,3.052,2.258,-1.221
0.781,0.581,-0.306,4.944,2.869,-0.671
0.786,0.575,-0.314,5.798,3.418,-0.183
0.784,0.564,-0.314,5.615,3.601,0.366
0.782,0.566,-0.319,4.822,3.052,1.221
0.784,0.570,-0.321,4.089,2.319,1.526
0.778,0.576,-0.318,3.174,1.831,1.099
0.774,0.585,-0.314,2.808,1.160,0.793
0.771,0.593,-0.307,1.587,0.916,0.061
0.767,0.597,-0.303,0.671,0.916,-0.671
0.762,0.597,-0.302,0.854,1.465,-1.221
0.766,0.595,-0.299,0.977,2.686,-1.770
0.784,0.587,-0.303,1.404,4.028,-2.502
0.793,0.585,-0.303,3.235,4.395,-2.808
0.793,0.578,-0.304,5.188,3.967,-3.052
0.788,0.560,-0.310,6.653,3.052,-3.235
0.780,0.544,-0.316,6.531,2.136,-2.991
0.776,0.540,-0.320,5.493,1.648,-2.380
0.771,0.539,-0.321,3.418,1.282,-0.916
0.765,0.545,-0.323,1.709,0.854,1.343
0.763,0.566,-0.318,0.427,1.038,2.930
0.770,0.580,-0.311,-0.183,1.770,2.991
0.776,0.589,-0.304,0.061,2.075,2.319
0.868,-0.891,0.941,166.382,-85.022,-43.396
0.780,-0.955,1.061,189.331,-94.116,-41.565
0.645,-1.009,1.176,209.045,-100.220,-36.682
0.490,-1.060,1.258,226.074,-100.281,-28.748
0.427,-1.126,1.266,246.155,-94.055,-17.517
0.286,-1.115,1.256,270.569,-80.566,-0.671
0.062,-0.967,1.339,294.800,-71.472,24.841
-0.048,-0.858,1.256,317.322,-74.585,55.969
-0.104,-0.835,1.140,344.604,-72.632,85.449
-0.110,-0.776,1.037,373.901,-65.918,110.962
-0.095,-0.698,0.879,397.644,-64.331,133.423
-0.078,-0.587,0.760,410.583,-67.322,154.663
-0.099,-0.461,0.658,414.551,-75.256,175.049
-0.112,-0.330,0.578,410.950,-89.905,190.491
-0.078,-0.174,0.510,400.391,-108.887,201.355
-0.027,0.029,0.476,377.625,-124.023,214.539
0.053,0.285,0.471,337.952,-127.747,235.168
0.181,0.661,0.461,285.583,-120.605,265.442
0.273,1.087,0.482,221.863,-95.764,301.331
0.404,1.495,0.435,151.001,-52.124,324.158
0.606,1.847,0.306,92.773,-2.502,326.416
0.818,2.084,0.129,55.847,34.790,306.519
1.039,2.230,0.032,38.879,48.157,268.311
1.219,2.302,-0.034,38.330,32.471,226.807
1.279,2.346,-0.029,50.232,0.000,195.068
1.268,2.322,0.030,67.444,-32.104,174.255
1.268,2.150,0.205,84.900,-58.350,156.616
1.159,2.003,0.125,93.262,-71.289,141.174
1.082,1.930,0.223,87.585,-69.336,125.977
1.069,1.952,0.185,65.125,-67.017,110.107
1.088,2.108,0.213,39.551,-47.729,96.069
1.415,2.578,0.102,11.353,-25.452,79.224
1.470,1.865,0.286,-3.906,-9.888,47.852
1.453,1.717,0.097,26.001,-7.568,12.939
1.379,1.433,0.072,55.603,-5.798,-11.536
1.249,0.959,0.023,49.561,1.099,-21.179
1.182,0.714,-0.015,18.005,5.981,-20.386
1.187,0.602,0.039,-18.005,10.498,-15.869
1.220,0.594,0.189,-50.842,7.507,-15.320
1.153,0.633,0.368,-67.261,-8.728,-21.667
1.026,0.580,0.501,-54.260,-26.978,-31.799
0.917,0.473,0.578,-17.456,-40.771,-40.710
0.793,0.315,0.603,19.653,-47.119,-44.495
0.682,0.150,0.575,40.771,-42.664,-43.396
0.619,0.030,0.490,44.189,-27.954,-37.964
0.619,-0.033,0.398,32.959,-6.775,-30.518
0.656,-0.028,0.342,11.963,16.052,-21.973
0.732,0.022,0.289,-6.836,33.691,-12.817
0.781,0.067,0.230,-18.616,40.833,-4.578
0.804,0.104,0.179,-22.888,39.246,1.099
0.827,0.157,0.160,-22.766,33.630,5.127
0.845,0.225,0.150,-19.287,25.818,9.155
0.855,0.298,0.116,-12.634,17.334,11.597
0.860,0.353,0.094,-4.578,9.644,12.085
0.880,0.390,0.095,-0.854,4.639,10.437
0.908,0.427,0.109,-0.244,1.099,7.690
0.931,0.435,0.135,-0.427,-2.441,5.615
0.932,0.428,0.181,-0.793,-5.676,4.089
0.927,0.425,0.230,-1.587,-8.057,2.747
0.925,0.415,0.277,-0.916,-9.338,3.235
0.930,0.408,0.324,0.183,-9.460,3.906
0.929,0.413,0.364,0.549,-8.240,3.906
0.922,0.418,0.390,1.404,-6.287,3.540
0.919,0.423,0.397,3.601,-3.784,3.052
0.927,0.420,0.386,5.554,-0.977,2.380
0.933,0.405,0.351,6.165,1.404,0.916
0.924,0.396,0.330,5.493,3.601,-1.038
0.913,0.382,0.316,4.700,5.981,-2.808
0.899,0.360,0.294,4.517,7.629,-3.540
0.878,0.328,0.274,5.554,8.850,-3.235
0.862,0.306,0.258,5.371,10.315,-2.625
0.863,0.310,0.247,4.333,12.024,-1.160
0.871,0.325,0.241,3.845,12.573,0.671
0.867,0.331,0.242,5.188,11.719,2.075
0.862,0.330,0.237,7.080,10.437,3.296
0.865,0.334,0.227,7.690,9.827,4.883
0.878,0.341,0.218,6.775,9.766,5.920
0.893,0.350,0.211,5.737,9.399,6.958
0.910,0.357,0.202,3.784,7.935,7.324
0.920,0.363,0.192,1.648,5.371,6.348
0.912,0.366,0.197,-0.671,2.319,4.761
0.899,0.384,0.210,-2.319,0.122,3.357
0.897,0.387,0.231,-2.747,-0.854,1.587
0.892,0.379,0.250,-0.549,-1.831,0.671
0.883,0.369,0.261,2.808,-2.502,0.366
0.875,0.356,0.265,4.944,-2.441,0.854
0.875,0.357,0.262,5.249,-1.648,2.075
0.884,0.369,0.261,3.967,-0.122,2.991
0.893,0.382,0.261,0.977,1.953,3.174
0.905,0.398,0.263,-1.099,3.418,3.174
0.913,0.408,0.260,-1.709,4.028,2.930
0.915,0.398,0.254,-0.549,3.845,2.869
0.911,0.386,0.246,0.671,3.601,2.625
0.909,0.383,0.240,1.099,2.991,2.747
0.905,0.393,0.234,0.427,2.808,2.869
0.907,0.411,0.239,-0.183,3.052,2.686
0.907,0.429,0.246,0.000,3.052,2.075
0.911,0.429,0.248,1.587,2.991,1.099
0.909,0.415,0.245,3.723,3.052,0.061
0.908,0.399,0.236,4.517,2.563,-0.793
0.900,0.382,0.230,2.930,2.563,-1.648
0.902,0.380,0.223,0.549,2.869,-1.648
0.904,0.383,0.227,-1.099,2.686,-1.160
0.910,0.388,0.233,-1.770,1.648,-0.610
0.908,0.393,0.240,-1.343,0.427,-0.366
0.898,0.388,0.249,0.366,-1.038,-0.488
0.889,0.381,0.252,0.854,-1.404,-0.671
0.886,0.375,0.257,0.427,-0.732,-0.793
0.885,0.367,0.263,0.000,-0.061,-1.404
0.880,0.358,0.268,-0.366,0.732,-2.075
0.873,0.347,0.270,-0.366,1.587,-2.319
0.873,0.340,0.266,0.610,2.319,-2.014
0.870,0.332,0.255,0.916,3.174,-1.831
0.871,0.326,0.246,1.038,3.784,-0.977
0.869,0.333,0.240,0.244,4.089,0.244
0.872,0.347,0.235,-0.488,3.967,1.892
0.877,0.362,0.230,-0.366,3.723,3.357
0.889,0.374,0.231,0.427,3.418,3.906
0.894,0.383,0.225,0.793,2.502,3.357
0.219,1.463,1.075,121.399,249.817,243.225
0.298,1.633,0.885,125.977,269.531,227.722
0.366,1.748,0.749,130.615,281.799,207.275
0.464,1.780,0.686,138.000,287.903,184.753
0.481,1.740,0.808,154.663,289.246,164.246
0.266,1.942,0.241,178.955,276.245,145.813
0.302,1.881,0.069,194.580,290.344,144.226
0.293,1.833,-0.079,206.970,317.566,141.296
0.271,1.926,-0.260,203.369,332.458,130.310
0.331,1.955,-0.505,184.265,340.271,119.568
0.441,1.865,-0.713,151.611,343.811,104.370
0.545,1.717,-0.873,106.201,338.562,82.275
0.550,1.648,-0.932,65.063,325.806,54.260
0.453,1.681,-1.002,42.175,304.321,29.846
0.351,1.668,-1.145,42.053,282.898,16.541
0.328,1.597,-1.282,56.335,267.517,10.437
0.353,1.467,-1.326,71.655,252.930,5.981
0.405,1.314,-1.338,82.031,231.812,1.465
0.460,1.129,-1.279,86.609,204.285,-1.892
0.440,0.967,-1.186,90.881,172.180,-3.845
0.331,0.885,-1.110,92.957,142.151,-4.272
0.188,0.879,-1.064,89.722,123.535,-2.930
-0.100,0.788,-1.493,83.984,123.047,-2.808
0.012,0.750,-1.396,74.829,174.744,-7.324
0.201,0.655,-1.270,65.002,217.163,-15.015
0.422,0.730,-1.493,38.818,206.970,-18.372
0.599,0.759,-1.467,15.076,176.819,-10.315
0.733,0.767,-1.385,3.174,124.329,2.319
0.858,0.787,-1.287,-0.488,55.664,10.742
0.865,0.769,-1.089,-0.671,-10.315,11.169
0.746,0.770,-0.866,-1.038,-60.852,5.066
0.654,0.751,-0.652,1.038,-91.309,-1.526
0.652,0.655,-0.446,4.639,-102.783,-6.409
0.638,0.600,-0.294,4.150,-99.365,-10.742
0.637,0.582,-0.202,0.061,-86.609,-13.123
0.656,0.563,-0.143,-2.686,-70.068,-12.695
0.684,0.558,-0.125,-4.761,-53.528,-10.986
0.710,0.565,-0.130,-5.737,-39.185,-7.507
0.729,0.578,-0.146,-7.202,-27.161,-3.845
0.733,0.595,-0.172,-10.742,-17.151,-1.404
0.732,0.618,-0.193,-15.015,-8.118,-0.488
0.724,0.642,-0.188,-17.639,-0.610,-1.465
0.712,0.651,-0.182,-17.700,6.042,-4.761
0.685,0.649,-0.206,-12.695,11.719,-9.338
0.679,0.616,-0.254,-1.404,15.442,-13.306
0.692,0.584,-0.318,10.681,16.968,-15.930
0.693,0.554,-0.370,18.494,15.991,-16.663
0.692,0.544,-0.418,19.836,12.817,-14.771
0.698,0.536,-0.448,15.137,9.094,-11.353
0.699,0.531,-0.463,8.423,5.676,-6.836
0.703,0.532,-0.459,2.258,2.197,-2.869
0.704,0.535,-0.440,-2.625,-0.305,0.732
0.702,0.551,-0.417,-6.470,-2.258,4.578
0.714,0.584,-0.404,-8.118,-3.723,7.751
0.739,0.633,-0.384,-7.446,-5.188,8.850
0.762,0.685,-0.355,-5.066,-7.629,7.202
0.768,0.710,-0.340,-1.221,-10.193,3.235
0.770,0.703,-0.337,4.578,-12.329,-1.038
0.765,0.682,-0.331,9.949,-13.000,-4.639
0.757,0.664,-0.332,13.000,-12.146,-6.897
0.753,0.640,-0.343,13.184,-10.681,-8.301
0.750,0.604,-0.343,11.841,-9.094,-9.094
0.736,0.575,-0.338,9.583,-7.629,-9.155
0.720,0.559,-0.333,7.507,-6.348,-7.446
0.710,0.556,-0.333,6.165,-4.944,-4.211
0.702,0.562,-0.331,3.601,-3.723,-0.244
0.703,0.591,-0.321,-1.587,-1.526,2.441
0.725,0.644,-0.313,-6.348,0.977,3.113
0.749,0.692,-0.311,-7.568,2.136,2.075
0.761,0.709,-0.314,-4.761,1.831,-0.488
0.771,0.700,-0.323,-0.183,0.732,-3.540
0.774,0.680,-0.329,4.150,-0.488,-6.653
0.759,0.651,-0.334,6.287,-1.282,-9.766
0.746,0.621,-0.340,6.897,-1.221,-11.597
0.739,0.587,-0.349,6.287,-0.977,-11.658
0.719,0.561,-0.346,5.127,-0.610,-9.216
0.708,0.564,-0.339,2.197,-0.122,-5.432
0.711,0.568,-0.336,-0.916,0.854,-1.282
0.719,0.587,-0.331,-3.296,1.709,2.014
0.731,0.606,-0.323,-2.991,2.197,3.357
0.743,0.621,-0.319,-0.854,2.319,2.441
0.754,0.629,-0.314,2.502,1.709,-0.244
0.747,0.614,-0.316,6.470,0.732,-2.869
0.740,0.601,-0.331,10.498,0.305,-4.578
0.733,0.583,-0.340,13.916,-0.122,-5.554
0.727,0.565,-0.347,14.099,-0.183,-5.310
0.716,0.548,-0.348,9.827,0.427,-4.211
0.712,0.555,-0.347,3.845,1.465,-2.319
0.720,0.570,-0.351,-0.244,2.747,1.038
0.734,0.590,-0.351,-2.197,3.052,4.517
0.749,0.619,-0.346,-2.136,2.502,6.348
0.755,0.634,-0.344,0.061,1.160,6.592
0.748,0.645,-0.343,2.991,-0.305,5.981
0.750,0.653,-0.342,4.272,-1.282,3.906
0.755,0.653,-0.335,2.686,-0.671,0.549
0.751,0.648,-0.326,1.221,0.183,-1.953
0.752,0.643,-0.318,1.160,0.671,-3.174
0.753,0.637,-0.312,2.319,1.160,-3.357
0.752,0.623,-0.310,3.845,2.014,-3.296
0.748,0.613,-0.315,4.761,3.052,-3.174
0.743,0.604,-0.323,5.066,4.395,-2.869
0.731,0.593,-0.341,5.005,5.432,-1.831
0.730,0.584,-0.358,3.662,6.287,-0.366
0.742,0.586,-0.371,1.160,6.348,0.732
0.746,0.599,-0.371,-1.221,5.127,1.587
0.746,0.619,-0.360,-3.113,2.869,1.221
0.743,0.633,-0.344,-3.784,0.732,-0.061
0.743,0.633,-0.329,-2.197,-0.854,-1.892
0.732,0.625,-0.318,1.343,-1.648,-3.357
0.722,0.612,-0.313,5.371,-1.770,-3.540
0.719,0.589,-0.319,7.019,-1.038,-3.113
0.720,0.569,-0.328,6.775,0.488,-2.625
0.719,0.561,-0.331,5.310,1.770,-1.587
0.722,0.561,-0.339,2.625,2.136,0.854
0.728,0.572,-0.344,0.122,2.014,3.235
0.735,0.598,-0.343,-1.404,1.953,4.761
0.746,0.623,-0.334,-2.014,1.526,5.554
0.752,0.640,-0.332,-1.343,1.099,5.493
0.761,0.655,-0.328,0.977,0.854,4.700
0.920,-0.887,0.884,128.906,-60.547,-37.231
0.859,-0.929,0.986,137.329,-57.129,-30.701
0.808,-0.950,1.073,142.883,-49.744,-20.935
0.764,-0.951,1.147,148.071,-39.612,-9.644
0.719,-0.949,1.207,155.212,-27.649,2.258
0.662,-0.917,1.237,166.077,-16.785,14.771
0.610,-0.878,1.249,182.068,-8.240,27.405
0.550,-0.827,1.248,202.271,-3.479,39.856
0.473,-0.755,1.239,225.342,-3.601,50.964
0.366,-0.669,1.217,251.892,-7.019,60.791
0.261,-0.586,1.161,282.532,-12.939,71.594
0.203,-0.506,1.101,312.866,-19.409,82.214
0.148,-0.443,1.050,336.426,-26.550,91.675
0.087,-0.379,1.000,352.783,-33.630,101.685
0.030,-0.301,0.927,365.356,-40.405,113.586
-0.002,-0.231,0.823,373.657,-46.936,126.831
-0.027,-0.147,0.730,375.610,-51.880,142.334
-0.032,-0.030,0.669,369.324,-54.321,159.912
-0.018,0.129,0.605,358.459,-56.702,178.894
0.031,0.349,0.524,347.412,-59.265,200.195
0.118,0.542,0.444,331.421,-57.739,224.976
0.253,0.786,0.321,302.673,-49.438,248.962
0.385,1.137,0.224,263.977,-35.828,272.034
0.514,1.510,0.083,211.182,-15.991,287.292
0.662,1.753,-0.062,151.245,13.550,284.851
0.837,2.004,-0.176,103.271,45.593,263.977
1.021,2.243,-0.245,75.867,64.636,234.558
1.155,2.350,-0.291,66.467,64.514,203.735
1.206,2.414,-0.286,76.538,47.119,177.734
1.191,2.384,-0.303,99.365,21.912,158.630
1.042,2.213,-0.405,122.559,-1.465,140.320
1.045,2.028,-0.477,140.137,-23.437,123.535
0.969,1.728,-0.145,138.245,-23.621,111.816
0.927,1.619,-0.062,118.713,-26.733,97.656
0.885,1.542,-0.111,88.684,-21.545,91.003
0.883,1.501,0.007,62.378,-3.052,85.266
1.036,1.717,-0.099,35.950,8.972,74.402
1.304,1.740,-0.014,6.165,14.587,52.490
1.430,1.601,0.070,-0.061,5.310,31.311
1.412,1.340,0.166,23.743,-22.461,12.878
1.303,1.146,0.204,54.871,-48.584,-3.784
1.165,0.863,0.295,66.711,-57.190,-11.780
1.073,0.610,0.335,57.495,-52.307,-11.902
0.981,0.472,0.355,34.363,-37.476,-11.475
0.901,0.434,0.352,9.216,-17.700,-11.597
0.869,0.458,0.327,-6.104,-0.183,-11.475
0.853,0.463,0.281,-6.409,12.817,-9.888
0.848,0.448,0.226,2.319,22.461,-7.446
0.855,0.411,0.157,13.794,28.748,-4.578
0.875,0.369,0.075,20.752,31.494,-2.136
0.883,0.330,0.004,21.057,30.396,-1.038
0.878,0.312,-0.021,14.465,27.893,-2.075
0.870,0.286,-0.027,8.911,23.743,-3.113
0.874,0.269,-0.031,6.592,17.273,-3.784
0.870,0.282,-0.023,5.432,9.399,-3.418
0.861,0.300,-0.006,5.188,2.258,-1.587
0.865,0.329,0.004,5.615,-3.540,0.671
0.887,0.363,0.026,4.578,-8.118,1.953
0.918,0.416,0.078,1.099,-12.024,1.892
0.941,0.451,0.148,-2.991,-15.076,-0.488
0.948,0.473,0.222,-3.418,-18.250,-2.747
0.941,0.451,0.283,0.427,-21.118,-4.333
0.920,0.425,0.333,2.808,-20.996,-5.249
0.892,0.413,0.358,3.784,-17.273,-4.578
0.879,0.423,0.367,4.028,-10.742,-2.441
0.880,0.430,0.358,3.723,-2.991,-0.610
0.884,0.441,0.322,3.540,3.601,1.343
0.901,0.453,0.279,2.869,8.301,2.197
0.909,0.456,0.237,1.282,10.864,2.075
0.912,0.453,0.202,-0.305,11.230,1.526
0.908,0.436,0.181,-0.610,10.437,1.038
0.899,0.417,0.161,-0.244,8.728,0.427
0.885,0.396,0.149,-0.427,6.531,0.732
0.872,0.398,0.145,-1.526,4.883,1.160
0.864,0.403,0.137,-1.526,3.235,1.160
0.852,0.421,0.134,-0.977,2.075,0.610
0.845,0.437,0.133,0.122,1.221,0.488
0.847,0.443,0.134,1.221,0.793,0.122
0.858,0.444,0.134,2.563,0.366,-0.366
0.871,0.433,0.137,3.174,-0.366,-1.038
0.882,0.420,0.155,2.563,-1.526,-1.770
0.891,0.411,0.176,1.648,-3.174,-1.831
0.888,0.399,0.204,1.038,-5.249,-1.282
0.877,0.395,0.226,0.549,-6.165,-0.671
0.876,0.398,0.238,0.122,-5.676,0.732
0.878,0.409,0.241,-0.244,-3.479,2.625
0.886,0.437,0.239,-0.427,-0.854,4.272
0.894,0.466,0.233,-0.671,1.892,4.639
0.900,0.483,0.216,0.000,4.578,4.089
0.911,0.485,0.195,1.831,6.409,2.991
0.918,0.477,0.173,4.211,7.324,1.831
0.916,0.463,0.154,5.737,7.507,0.549
0.918,0.443,0.141,5.432,7.385,-0.916
0.921,0.425,0.134,4.211,6.409,-1.526
0.914,0.410,0.130,2.258,4.944,-1.465
0.905,0.402,0.135,-0.427,3.296,-1.099
0.899,0.411,0.146,-2.808,1.953,0.000
0.895,0.429,0.159,-3.540,0.488,0.916
0.889,0.448,0.170,-3.174,-0.488,0.977
0.885,0.458,0.179,-2.136,-1.160,-0.122
0.882,0.462,0.195,-0.793,-1.648,-1.648
0.879,0.444,0.202,0.793,-1.648,-2.563
0.869,0.433,0.200,3.113,-1.770,-2.808
0.863,0.415,0.199,4.761,-1.587,-2.563
0.861,0.401,0.194,4.272,-1.038,-2.136
0.855,0.398,0.189,2.197,0.000,-1.465
0.860,0.400,0.181,0.854,0.916,-0.061
0.873,0.406,0.179,-1.343,1.343,0.916
0.879,0.413,0.182,-2.869,1.343,1.831
0.883,0.422,0.186,-2.808,0.977,2.258
0.888,0.430,0.194,-1.953,0.427,2.136
0.896,0.431,0.197,-0.488,-0.061,1.404
0.897,0.426,0.194,1.587,-0.183,0.977
0.897,0.425,0.191,1.831,0.305,0.366
0.897,0.425,0.182,1.160,1.099,0.183
0.903,0.432,0.172,0.427,2.075,0.244
0.908,0.430,0.171,-0.366,2.625,0.671
0.903,0.433,0.164,-1.221,2.625,1.160
0.899,0.431,0.159,-2.075,2.625,1.587
0.417,2.616,-0.409,99.731,345.459,218.262
0.365,2.659,-1.069,69.824,340.210,174.988
0.386,2.516,-0.904,56.946,365.723,132.141
0.371,2.376,-0.915,62.500,354.980,90.637
0.380,2.248,-1.054,73.242,326.355,59.021
0.364,2.046,-1.170,94.055,293.091,37.415
0.300,1.826,-1.230,109.680,261.719,21.240
0.182,1.767,-1.143,117.615,233.948,12.573
0.026,1.496,-1.443,112.427,219.727,9.094
-0.036,1.479,-1.398,88.440,230.347,2.563
0.016,1.317,-1.438,57.922,229.675,10.986
0.164,1.160,-1.623,27.161,224.915,10.376
0.288,1.032,-1.700,-5.310,222.534,1.648
0.353,0.882,-1.570,-35.889,215.576,-10.681
0.389,0.893,-1.294,-48.523,181.641,-23.743
0.403,0.702,-1.539,-33.081,124.634,-28.198
0.380,0.695,-1.461,-20.569,85.938,-26.489
0.389,0.564,-1.238,-5.981,65.735,-19.897
0.488,0.522,-1.161,0.183,32.166,-11.841
0.542,0.591,-1.014,-1.282,-3.418,-3.845
0.591,0.625,-0.912,0.305,-32.959,3.845
0.652,0.670,-0.752,5.066,-56.091,9.033
0.677,0.661,-0.606,14.038,-74.158,10.437
0.661,0.655,-0.478,23.865,-86.121,9.216
0.636,0.658,-0.364,30.884,-88.379,6.775
0.625,0.698,-0.253,32.471,-83.313,6.287
0.630,0.635,-0.215,28.503,-72.449,7.202
0.648,0.643,-0.130,18.921,-56.274,2.869
0.651,0.678,-0.110,11.963,-40.649,-2.625
0.675,0.666,-0.123,5.920,-26.733,-4.028
0.694,0.658,-0.129,-0.061,-14.954,-3.540
0.705,0.673,-0.132,-3.540,-5.920,-3.906
0.714,0.690,-0.165,-1.770,-0.427,-4.456
0.714,0.657,-0.216,3.052,3.052,-4.456
0.705,0.635,-0.263,7.385,5.737,-4.150
0.694,0.626,-0.314,7.812,7.874,-4.272
0.686,0.620,-0.361,4.517,8.911,-3.906
0.684,0.615,-0.406,0.488,9.277,-3.235
0.686,0.625,-0.421,-2.930,8.728,-2.747
0.682,0.663,-0.423,-5.615,6.897,-2.563
0.691,0.694,-0.409,-5.432,4.150,-1.282
0.702,0.715,-0.399,-1.648,0.427,-0.610
0.710,0.721,-0.374,4.822,-3.296,-1.343
0.700,0.710,-0.358,12.268,-6.531,-3.357
0.694,0.697,-0.351,17.151,-8.118,-4.578
0.683,0.675,-0.345,17.822,-7.263,-5.310
0.674,0.664,-0.346,16.602,-5.493,-4.822
0.665,0.652,-0.346,13.428,-3.479,-3.845
0.663,0.658,-0.343,8.789,-1.038,-2.075
0.671,0.654,-0.341,3.113,2.380,0.793
0.689,0.631,-0.360,-2.380,5.676,2.747
0.693,0.645,-0.352,-9.399,8.606,2.014
0.696,0.663,-0.329,-12.573,9.277,1.709
0.694,0.680,-0.326,-11.475,7.812,0.732
0.685,0.682,-0.333,-5.920,5.249,-1.221
0.674,0.664,-0.339,3.418,2.380,-2.808
0.670,0.654,-0.361,13.184,-1.404,-3.784
0.656,0.642,-0.368,17.517,-3.967,-4.211
0.648,0.630,-0.365,17.334,-5.493,-3.296
0.645,0.627,-0.362,13.245,-5.432,-1.953
0.650,0.622,-0.366,6.775,-3.845,0.427
0.674,0.643,-0.361,-0.732,-0.549,3.418
0.705,0.664,-0.355,-6.531,1.709,5.676
0.716,0.691,-0.349,-9.338,2.380,6.531
0.717,0.716,-0.346,-7.507,1.587,6.409
0.712,0.719,-0.341,-3.784,0.366,4.883
0.704,0.722,-0.339,0.305,-1.099,2.869
0.697,0.724,-0.344,2.319,-1.892,-0.122
0.695,0.705,-0.349,3.662,-1.709,-2.930
0.686,0.690,-0.349,4.333,-1.465,-4.700
0.678,0.677,-0.353,5.188,-1.221,-4.700
0.672,0.658,-0.362,4.517,-0.488,-4.089
0.676,0.642,-0.366,2.502,0.610,-2.991
0.680,0.635,-0.365,-0.122,1.343,-1.770
0.682,0.632,-0.362,-2.136,1.282,-0.122
0.685,0.641,-0.357,-3.601,0.671,1.038
0.684,0.649,-0.348,-3.113,-0.244,2.136
0.686,0.663,-0.339,-1.953,-1.343,2.380
0.689,0.669,-0.331,-0.488,-2.319,2.258
0.688,0.672,-0.320,1.282,-3.174,1.831
0.690,0.683,-0.312,2.686,-4.150,1.221
0.687,0.690,-0.308,2.136,-4.150,-0.061
0.686,0.692,-0.297,0.977,-2.991,-1.587
0.683,0.692,-0.295,0.488,-1.953,-2.563
0.678,0.684,-0.305,1.648,-0.427,-2.747
0.678,0.668,-0.314,2.502,1.160,-2.563
0.676,0.643,-0.327,1.831,2.686,-2.136
0.678,0.627,-0.334,0.183,4.333,-1.282
0.686,0.625,-0.337,-1.587,5.127,0.427
0.694,0.634,-0.341,-3.601,4.700,2.136
0.699,0.644,-0.342,-4.700,3.967,3.357
0.695,0.652,-0.340,-3.540,2.930,4.028
0.689,0.666,-0.344,-0.549,1.587,4.822
0.694,0.679,-0.351,2.136,0.610,4.700
0.694,0.683,-0.351,3.784,-0.427,4.761
0.684,0.699,-0.346,2.930,-0.610,3.235
0.678,0.708,-0.343,1.465,0.488,0.610
0.688,0.701,-0.335,1.465,1.892,-1.526
0.693,0.690,-0.334,2.686,2.563,-2.075
0.688,0.680,-0.341,3.113,2.625,-2.319
0.684,0.669,-0.347,2.747,2.808,-2.441
0.685,0.658,-0.349,1.892,3.296,-2.625
0.687,0.649,-0.351,1.587,3.113,-2.380
0.681,0.638,-0.359,1.709,2.686,-1.404
0.681,0.649,-0.362,2.197,1.831,-0.061
0.684,0.656,-0.369,1.770,0.916,1.343
0.687,0.660,-0.370,0.977,-0.061,2.808
0.690,0.673,-0.365,-0.122,-1.038,3.174
0.693,0.687,-0.346,-0.305,-1.709,3.052
0.693,0.707,-0.328,-0.244,-1.892,2.502
0.693,0.719,-0.316,-0.183,-1.465,0.305
0.689,0.712,-0.310,0.977,-0.671,-2.441
0.686,0.704,-0.314,4.517,-0.122,-3.967
0.682,0.681,-0.337,8.240,-0.061,-4.639
0.680,0.656,-0.354,10.193,-0.488,-4.456
0.673,0.638,-0.371,9.644,-0.671,-4.150
0.663,0.626,-0.366,6.897,-0.488,-3.357
0.661,0.632,-0.364,2.014,0.122,-2.075
0.669,0.641,-0.362,-2.502,0.977,0.427
0.978,-1.136,0.787,143.799,-81.665,-77.271
0.897,-1.321,0.959,132.080,-88.196,-79.346
0.788,-1.419,1.224,105.774,-88.013,-80.933
0.619,-1.399,1.528,80.017,-87.402,-80.750
0.410,-1.373,1.822,72.021,-86.487,-77.698
0.118,-1.355,2.075,88.928,-81.726,-70.313
-0.176,-1.342,2.223,131.226,-70.862,-51.086
-0.397,-1.355,2.241,195.862,-55.115,-13.489
-0.542,-1.357,2.153,272.705,-40.955,44.312
-0.630,-1.268,1.996,340.332,-28.931,113.403
-0.701,-1.054,1.835,383.728,-15.808,178.711
-0.764,-0.730,1.656,405.273,-3.418,231.262
-0.771,-0.376,1.480,409.912,10.376,268.921
-0.744,-0.032,1.281,403.381,23.071,294.556
-0.633,0.363,1.058,388.672,31.555,312.927
-0.464,0.831,0.850,364.685,37.964,330.444
-0.240,1.388,0.645,328.430,50.415,345.337
0.056,1.908,0.374,286.804,71.228,350.891
0.397,2.339,0.065,250.244,98.145,342.041
0.757,2.636,-0.201,221.619,124.084,317.688
1.065,2.762,-0.419,205.627,132.629,278.503
1.222,2.743,-0.603,207.703,112.000,232.422
1.238,2.637,-0.695,222.900,69.214,191.223
1.207,2.464,-0.750,237.427,15.442,162.781
1.085,2.341,-0.793,242.371,-30.884,151.245
0.931,2.310,-0.733,225.952,-53.406,154.968
0.723,2.289,-0.704,184.326,-48.889,160.889
0.917,2.223,-0.806,129.700,-28.687,157.471
0.999,2.295,-0.484,70.679,13.672,138.977
1.068,2.262,-0.367,32.227,50.171,115.723
1.235,2.307,-0.425,16.174,56.641,97.046
1.470,2.092,-0.268,27.893,52.246,86.182
1.594,1.930,-0.169,42.786,29.602,70.313
1.517,1.533,-0.101,56.702,-8.484,43.884
1.299,1.256,-0.082,70.557,-43.457,8.911
1.056,0.924,-0.007,80.627,-55.786,-16.907
0.884,0.640,0.067,81.604,-46.448,-31.799
0.844,0.462,0.001,67.993,-33.997,-32.104
0.859,0.365,-0.035,40.527,-20.508,-22.461
0.848,0.357,-0.005,10.315,-7.812,-13.855
0.847,0.396,0.025,-10.254,1.038,-10.315
0.836,0.394,0.058,-17.822,5.554,-9.216
0.809,0.383,0.074,-13.611,5.737,-9.766
0.782,0.369,0.053,-3.784,3.784,-9.155
0.772,0.321,0.019,6.042,2.686,-5.615
0.777,0.292,-0.017,12.268,2.441,-2.319
0.805,0.297,-0.035,11.597,3.418,0.549
0.860,0.338,-0.034,6.348,3.845,3.479
0.910,0.417,-0.019,1.038,0.549,5.310
0.956,0.501,0.022,-2.747,-3.967,5.005
0.989,0.537,0.082,-4.028,-9.033,2.075
1.000,0.542,0.140,-1.709,-14.404,-1.709
0.993,0.519,0.190,2.319,-18.677,-3.967
0.972,0.488,0.237,5.005,-20.325,-4.639
0.935,0.480,0.265,4.700,-17.944,-4.822
0.907,0.475,0.276,3.784,-11.719,-5.310
0.896,0.470,0.267,3.235,-4.089,-4.883
0.889,0.466,0.241,3.113,3.052,-3.235
0.893,0.446,0.216,3.235,9.033,-1.343
0.889,0.459,0.184,2.502,12.573,0.183
0.890,0.455,0.140,1.526,13.977,1.404
0.900,0.452,0.106,0.366,13.916,0.793
0.901,0.442,0.091,-0.916,12.024,-0.916
0.895,0.441,0.085,-0.793,8.606,-2.747
0.884,0.431,0.081,1.465,4.822,-4.150
0.862,0.408,0.081,4.761,0.793,-4.700
0.844,0.388,0.083,6.470,-1.343,-4.211
0.840,0.379,0.094,5.066,-1.526,-3.174
0.843,0.392,0.112,1.465,-0.793,-1.831
0.842,0.414,0.129,-1.892,1.099,0.061
0.848,0.436,0.131,-3.540,3.662,1.221
0.865,0.442,0.124,-2.869,6.409,1.587
0.878,0.441,0.115,-0.977,7.690,1.831
0.884,0.442,0.098,1.099,7.202,2.930
0.895,0.437,0.077,1.892,6.165,4.333
0.908,0.440,0.062,1.953,4.578,5.432
0.924,0.451,0.052,0.854,2.258,5.554
0.930,0.461,0.068,-1.892,-0.244,4.700
0.922,0.464,0.091,-4.028,-2.747,2.869
0.906,0.455,0.117,-3.113,-5.005,1.526
0.889,0.448,0.142,-1.282,-5.920,0.732
0.875,0.442,0.164,0.000,-4.944,0.732
0.865,0.437,0.165,0.183,-2.075,1.038
0.865,0.443,0.157,0.488,2.197,1.770
0.877,0.444,0.142,1.099,6.470,3.296
0.887,0.450,0.114,2.197,8.972,4.333
0.898,0.463,0.090,2.441,9.521,4.639
0.912,0.464,0.078,2.136,8.728,5.676
0.922,0.486,0.066,0.732,7.019,5.737
0.926,0.497,0.072,-0.793,5.005,4.272
0.932,0.500,0.075,-1.160,2.869,2.808
0.932,0.501,0.087,-0.183,0.793,1.160
0.933,0.490,0.109,0.793,-1.221,-1.038
0.909,0.489,0.121,1.892,-2.563,-2.441
0.892,0.477,0.128,3.235,-2.808,-2.747
0.882,0.470,0.143,3.418,-1.709,-3.052
0.867,0.467,0.142,2.625,0.305,-2.808
0.872,0.451,0.129,1.404,2.502,-2.197
0.877,0.446,0.110,-0.244,4.761,-1.526
0.892,0.448,0.090,-1.343,6.104,-0.366
0.903,0.450,0.074,-2.502,5.676,-0.244
0.906,0.455,0.078,-3.418,4.333,-0.732
0.902,0.466,0.080,-2.747,2.075,-1.404
0.902,0.455,0.088,-0.244,-0.793,-2.258
0.896,0.431,0.092,1.404,-2.625,-3.357
0.884,0.415,0.107,2.441,-3.906,-3.784
0.872,0.410,0.127,1.831,-4.333,-3.540
0.859,0.405,0.141,1.282,-3.601,-2.808
0.854,0.406,0.148,0.854,-1.953,-1.831
0.859,0.415,0.151,0.183,0.610,-0.488
0.867,0.419,0.142,-0.977,3.357,0.732
0.873,0.425,0.129,-0.549,5.798,2.136
0.882,0.430,0.117,0.305,6.653,3.174
0.890,0.434,0.098,1.038,6.165,3.357
0.896,0.434,0.094,1.770,4.822,3.418
0.898,0.435,0.085,2.258,2.991,3.479
0.903,0.438,0.084,1.831,1.343,3.296
0.905,0.451,0.094,1.160,0.488,3.479
0.907,0.466,0.096,0.427,0.061,2.808
-0.344,-1.841,0.646,36.011,-77.698,9.521
-0.451,-1.708,0.776,50.293,-82.764,43.823
-0.480,-1.498,0.940,71.350,-85.266,86.670
-0.396,-1.231,1.085,99.121,-87.830,132.812
-0.278,-0.939,1.238,130.981,-91.675,175.293
-0.122,-0.645,1.407,161.682,-96.130,212.830
0.032,-0.337,1.543,188.904,-99.487,242.798
0.175,-0.098,1.648,218.079,-96.924,267.151
0.344,0.104,1.707,244.690,-82.336,284.973
0.534,0.369,1.719,264.771,-57.739,290.833
0.736,0.601,1.660,280.151,-30.823,287.537
0.922,0.732,1.559,290.955,-7.935,275.146
1.046,0.841,1.386,291.443,8.240,251.038
1.060,0.971,1.216,279.846,20.020,223.083
1.140,1.056,1.065,260.010,33.081,198.486
1.069,1.124,0.747,235.596,45.410,172.974
1.098,1.187,0.698,211.670,48.706,148.071
1.104,1.234,0.776,190.918,60.120,130.249
1.047,1.388,0.716,169.495,71.289,115.784
1.067,1.492,0.680,159.302,69.763,111.877
0.991,1.682,0.579,164.001,65.002,114.929
0.900,1.917,0.305,187.744,69.946,121.460
0.917,2.191,-0.095,229.797,93.323,126.587
1.166,2.256,-0.416,268.860,125.671,125.610
1.484,1.922,-0.727,273.865,140.625,118.042
1.616,1.516,-0.963,230.286,119.934,98.267
1.566,1.218,-1.056,156.006,75.928,75.195
1.434,1.063,-0.926,74.219,39.429,55.786
1.305,0.923,-0.712,6.348,31.006,39.490
1.261,0.758,-0.519,-37.842,46.387,25.757
1.249,0.589,-0.340,-59.448,62.195,11.047
1.236,0.443,-0.232,-58.899,62.134,-3.784
1.205,0.319,-0.123,-42.542,45.227,-16.174
1.118,0.233,-0.090,-16.846,18.738,-26.611
1.021,0.184,-0.086,10.254,-7.141,-35.339
0.925,0.142,-0.111,31.250,-24.963,-38.940
0.847,0.109,-0.151,40.710,-28.503,-36.804
0.824,0.095,-0.185,38.940,-21.118,-30.945
0.843,0.099,-0.199,28.931,-10.620,-23.010
0.891,0.102,-0.189,15.259,-2.075,-14.709
0.937,0.101,-0.154,1.770,3.357,-9.766
0.966,0.080,-0.105,-8.667,3.906,-8.667
0.969,0.047,-0.029,-16.418,-0.671,-11.047
0.932,-0.001,0.039,-20.142,-8.118,-15.198
0.898,-0.035,0.113,-20.203,-16.174,-17.944
0.895,-0.066,0.179,-16.479,-22.278,-17.212
0.900,-0.074,0.227,-10.193,-26.489,-14.709
0.912,-0.073,0.247,-0.732,-29.724,-11.108
0.927,-0.065,0.239,8.850,-31.250,-6.714
0.940,-0.046,0.215,16.724,-30.090,-1.526
0.962,-0.024,0.193,20.447,-24.597,5.127
1.000,0.001,0.165,20.874,-16.663,11.475
1.047,0.026,0.114,18.494,-8.057,15.625
1.104,0.062,0.068,14.526,-1.038,16.724
1.133,0.108,0.035,8.301,3.540,13.367
1.127,0.144,0.017,2.930,4.089,7.812
1.100,0.174,0.015,0.244,1.526,2.930
1.071,0.176,0.015,0.183,-2.136,0.000
1.037,0.155,0.013,0.916,-5.371,-2.075
1.003,0.124,0.007,2.319,-8.057,-3.357
0.980,0.095,0.010,2.502,-9.888,-4.272
0.949,0.066,0.022,1.282,-10.437,-4.028
0.926,0.046,0.045,-0.488,-8.667,-2.747
0.925,0.036,0.068,-2.686,-3.662,0.122
0.937,0.036,0.084,-5.310,2.380,3.906
0.961,0.047,0.098,-7.080,7.385,7.935
0.987,0.068,0.106,-7.446,10.132,10.559
1.008,0.096,0.112,-5.920,10.498,12.085
1.035,0.120,0.109,-2.625,8.179,12.573
1.056,0.132,0.095,1.221,4.333,11.719
1.059,0.139,0.078,4.272,0.549,9.094
1.055,0.140,0.069,6.165,-2.014,6.470
1.047,0.136,0.062,5.920,-3.174,4.150
1.034,0.128,0.058,4.578,-3.967,2.075
1.019,0.117,0.063,2.625,-4.150,0.427
1.003,0.101,0.072,0.610,-4.150,-0.977
0.991,0.083,0.081,-1.587,-3.784,-1.831
0.980,0.064,0.098,-3.235,-3.052,-1.404
0.975,0.053,0.120,-5.310,-1.160,-0.732
0.980,0.049,0.146,-6.897,1.770,0.793
0.991,0.054,0.157,-6.775,5.005,2.808
1.002,0.072,0.159,-4.822,7.568,4.517
1.014,0.094,0.148,-1.770,9.216,5.371
1.029,0.114,0.129,2.747,9.216,6.592
1.046,0.124,0.107,7.507,7.263,6.409
1.058,0.127,0.079,11.719,4.517,4.883
1.055,0.120,0.050,13.977,2.075,2.136
1.041,0.114,0.033,13.794,0.305,-0.854
1.022,0.108,0.021,11.292,-0.610,-2.747
1.005,0.104,0.016,8.423,-0.549,-3.052
1.000,0.097,0.013,4.578,0.305,-2.747
0.996,0.092,0.016,0.549,1.709,-2.014
0.992,0.090,0.028,-2.625,3.235,-1.526
0.990,0.101,0.044,-5.188,4.456,-0.793
0.990,0.112,0.055,-6.470,4.700,0.122
0.997,0.116,0.064,-6.287,4.700,1.770
1.000,0.121,0.070,-6.104,4.639,2.686
1.001,0.128,0.075,-5.615,4.272,2.563
1.003,0.131,0.078,-4.395,3.601,1.892
1.001,0.130,0.075,-1.953,1.770,0.366
0.989,0.130,0.063,1.099,-0.854,-1.099
0.976,0.116,0.049,4.578,-3.418,-1.160
0.973,0.105,0.040,6.287,-4.272,-0.793
0.970,0.094,0.036,5.920,-3.662,-0.183
0.979,0.083,0.039,4.150,-2.625,0.305
0.985,0.078,0.057,1.465,-1.282,0.549
0.997,0.083,0.077,-1.282,0.610,0.854
1.018,0.085,0.097,-2.686,1.526,1.282
1.026,0.088,0.114,-3.052,1.038,0.122
1.020,0.090,0.124,-2.258,0.122,-1.709
1.010,0.093,0.130,-0.793,-1.404,-2.930
1.007,0.089,0.125,1.587,-2.563,-3.052
1.008,0.082,0.110,4.333,-3.601,-2.808
1.004,0.080,0.098,6.470,-4.150,-2.136
1.001,0.077,0.083,6.775,-3.479,-1.587
1.001,0.078,0.072,6.165,-2.563,-0.977
1.001,0.074,0.067,4.639,-1.892,-0.488
1.002,0.068,0.064,3.174,-1.648,-0.549
1.001,0.068,0.065,1.648,-1.404,-0.732
0.167,-1.684,0.711,107.056,-65.063,-42.053
-0.036,-1.865,0.795,125.427,-78.308,-35.095
-0.211,-1.981,0.856,144.470,-85.144,-21.423
-0.367,-2.049,0.924,161.743,-86.365,-1.770
-0.483,-2.035,1.011,177.734,-83.862,22.339
-0.527,-1.870,1.078,199.036,-84.595,52.612
-0.465,-1.606,1.139,228.638,-94.971,92.712
-0.335,-1.320,1.173,264.221,-112.488,134.949
-0.196,-1.028,1.213,303.406,-131.897,171.143
-0.048,-0.765,1.204,343.811,-152.222,200.012
0.021,-0.482,1.084,378.845,-173.401,221.619
0.088,-0.124,0.892,403.076,-187.927,238.892
0.159,0.270,0.681,413.574,-186.584,259.399
0.385,0.677,0.470,405.151,-165.039,283.386
0.738,1.035,0.287,376.648,-130.981,299.622
1.099,1.264,0.125,331.848,-94.177,295.166
1.256,1.241,0.030,275.452,-60.242,265.076
1.235,1.232,0.150,212.646,-38.818,216.492
1.054,1.414,0.298,153.198,-54.810,184.814
0.748,1.364,0.331,129.028,-92.346,192.139
0.709,1.485,0.356,129.883,-129.028,183.472
0.840,1.286,1.446,98.389,-133.789,206.909
0.580,1.663,2.230,-56.702,-153.625,239.685
0.472,2.786,3.065,-232.239,-101.257,258.057
1.473,3.192,2.513,-213.623,114.746,237.061
2.050,3.176,1.453,-62.988,336.670,185.425
1.785,2.821,0.235,109.192,386.414,126.221
1.656,2.084,-1.538,249.329,299.927,80.444
1.727,1.277,-3.263,259.521,224.182,41.931
1.796,0.982,-3.788,120.056,191.711,-1.160
1.764,0.985,-3.138,-2.075,80.688,-30.884
1.460,0.837,-1.904,-39.734,-83.862,-48.950
1.176,0.456,-0.950,-31.799,-216.492,-61.646
0.933,0.147,-0.377,-30.640,-253.967,-80.383
0.695,-0.038,0.118,-57.251,-212.219,-93.201
0.497,-0.153,0.433,-86.243,-142.944,-92.834
0.411,-0.191,0.716,-105.408,-76.111,-78.186
0.463,-0.107,0.971,-113.892,-24.048,-52.551
0.627,0.005,1.136,-97.229,1.831,-23.315
0.782,0.070,1.143,-54.443,5.798,-1.221
0.822,0.070,0.980,-2.441,0.610,12.939
0.880,0.017,0.714,40.955,-1.160,23.865
0.955,-0.032,0.410,66.406,0.977,30.884
1.022,-0.055,0.145,70.007,7.385,32.349
1.092,-0.041,-0.026,58.411,15.686,27.039
1.091,0.000,-0.109,38.940,20.264,18.250
1.054,0.048,-0.123,19.714,21.179,10.498
1.013,0.091,-0.110,5.188,20.508,4.578
0.958,0.114,-0.103,-3.174,18.127,0.488
0.919,0.138,-0.089,-9.583,15.381,-1.770
0.901,0.182,-0.054,-14.221,12.329,-2.625
0.888,0.228,-0.022,-14.954,8.179,-3.113
0.902,0.266,0.006,-12.512,3.662,-3.540
0.932,0.297,0.032,-7.935,0.122,-3.723
0.970,0.305,0.038,-1.526,-3.052,-3.601
1.005,0.285,0.027,4.944,-6.836,-3.845
1.035,0.257,0.010,9.216,-10.437,-4.333
1.048,0.230,-0.006,9.583,-11.780,-5.066
1.063,0.209,-0.008,6.836,-11.963,-6.165
1.071,0.190,0.010,2.808,-11.841,-7.690
1.070,0.167,0.042,-0.854,-12.085,-9.155
1.056,0.151,0.079,-4.395,-11.414,-10.193
1.035,0.140,0.123,-7.385,-9.583,-10.986
1.019,0.134,0.166,-9.766,-6.653,-11.047
0.999,0.127,0.191,-10.376,-3.235,-10.925
0.979,0.110,0.186,-8.301,-0.244,-9.583
0.968,0.099,0.162,-5.432,2.319,-7.690
0.960,0.097,0.138,-3.296,3.967,-6.287
0.962,0.096,0.109,-1.099,4.089,-4.883
0.961,0.094,0.081,0.610,2.625,-3.906
0.965,0.083,0.056,1.770,0.488,-3.601
0.975,0.069,0.044,1.770,-1.465,-3.052
0.981,0.064,0.038,0.916,-2.380,-2.319
0.986,0.065,0.041,-0.305,-2.563,-1.831
0.980,0.073,0.050,-1.587,-2.319,-1.343
0.976,0.090,0.060,-3.113,-1.831,-0.854
0.976,0.111,0.069,-4.150,-0.854,-0.671
0.984,0.129,0.076,-4.578,-0.122,-0.549
0.982,0.133,0.082,-4.517,0.244,-0.427
0.989,0.135,0.095,-5.554,1.709,-0.610
1.001,0.147,0.108,-6.653,3.540,-0.488
1.010,0.152,0.106,-5.371,4.028,-0.244
1.012,0.143,0.092,-2.563,3.052,-0.183
1.009,0.130,0.069,0.061,0.977,0.244
1.008,0.121,0.052,1.343,-0.916,1.160
1.008,0.112,0.042,0.488,-1.099,1.526
1.010,0.110,0.041,-1.648,0.061,1.587
1.005,0.117,0.051,-4.150,1.099,1.343
1.005,0.128,0.069,-5.981,1.465,1.038
1.001,0.135,0.084,-5.798,1.709,0.854
1.004,0.141,0.092,-3.845,1.648,0.916
1.009,0.143,0.097,-1.770,1.282,0.793
1.013,0.140,0.094,0.000,0.793,0.488
1.008,0.136,0.090,1.099,0.610,0.061
1.006,0.133,0.082,1.160,1.282,-0.305
1.001,0.136,0.073,1.038,2.014,-0.183
1.000,0.134,0.058,1.038,2.014,0.366
0.998,0.133,0.045,0.183,1.648,0.549
0.987,0.131,0.038,-1.648,1.343,0.427
0.979,0.131,0.044,-3.906,1.160,0.061
0.972,0.130,0.059,-6.104,1.160,-0.549
0.964,0.130,0.072,-6.653,0.610,-1.099
0.966,0.127,0.087,-5.676,-0.671,-0.916
0.972,0.124,0.096,-3.662,-2.563,-0.916
0.979,0.120,0.099,-1.343,-4.333,-0.854
0.980,0.119,0.103,0.122,-4.883,-0.854
0.986,0.119,0.109,0.793,-3.784,-0.793
0.996,0.126,0.114,1.343,-1.404,-0.610
1.000,0.134,0.108,2.197,1.038,0.061
1.000,0.137,0.089,3.174,2.258,0.549
1.001,0.139,0.065,3.662,2.197,0.916
1.010,0.139,0.040,3.479,0.977,1.221
1.018,0.131,0.022,1.648,-0.488,0.793
1.023,0.133,0.023,-1.160,-0.977,0.244
1.028,0.135,0.037,-4.456,-0.916,-0.549
1.034,0.137,0.059,-7.263,-0.488,-1.282
1.034,0.138,0.078,-8.118,-0.366,-2.014
1.031,0.137,0.093,-7.080,-0.793,-2.319
1.015,0.130,0.104,-5.188,-0.977,-2.625
-0.299,-1.316,0.805,39.673,-26.367,99.182
-0.223,-1.166,0.839,72.693,-29.907,136.292
-0.110,-0.993,0.876,103.271,-33.630,171.265
0.015,-0.814,0.894,133.667,-41.382,202.454
0.143,-0.555,0.862,162.415,-53.345,230.957
0.275,-0.270,0.862,188.110,-61.890,259.216
0.427,0.025,0.870,209.351,-60.547,288.757
0.535,0.321,0.838,228.821,-54.382,317.139
0.703,0.612,0.787,244.995,-39.917,339.355
0.989,0.789,0.698,256.165,-15.076,346.985
1.277,0.847,0.559,253.967,12.817,328.247
1.461,0.912,0.478,235.657,37.720,280.762
1.473,1.067,0.466,209.045,51.270,218.811
1.383,1.214,0.466,185.791,49.805,166.504
1.289,1.245,0.449,172.241,42.847,137.451
1.232,1.239,0.426,164.551,40.222,125.244
1.227,1.245,0.434,157.532,43.030,120.911
1.170,1.122,0.248,154.114,36.072,120.728
1.231,1.019,0.384,150.269,48.340,117.676
1.180,1.037,0.362,145.935,52.795,105.896
1.145,1.031,0.359,148.193,48.157,95.337
1.100,0.944,0.327,155.334,37.537,91.064
1.046,0.853,0.256,158.752,27.405,86.182
0.985,0.757,0.204,156.677,20.142,80.688
0.944,0.643,0.177,149.414,18.005,76.233
0.896,0.587,0.160,138.733,18.555,71.411
0.861,0.605,0.129,127.502,22.156,67.200
0.853,0.646,0.104,119.507,24.780,66.406
0.828,0.731,0.048,113.098,29.907,68.970
0.835,0.798,-0.019,108.887,37.598,73.242
0.849,0.831,-0.106,106.873,48.462,75.806
0.869,0.879,-0.199,106.140,61.768,75.317
0.944,0.908,-0.306,106.506,73.303,72.144
1.042,0.906,-0.395,107.239,77.515,65.063
1.121,0.875,-0.459,104.736,70.740,52.185
1.149,0.872,-0.478,97.473,52.063,35.461
1.158,0.845,-0.463,86.426,24.048,20.203
1.142,0.762,-0.420,72.266,-3.174,9.155
1.098,0.674,-0.382,55.664,-22.644,0.977
1.058,0.573,-0.312,39.246,-29.358,-4.211
1.031,0.482,-0.260,24.719,-25.208,-8.362
1.030,0.409,-0.195,12.939,-16.968,-10.742
1.016,0.351,-0.158,5.737,-11.169,-10.986
1.005,0.294,-0.123,2.502,-8.240,-10.925
0.991,0.264,-0.094,1.282,-9.949,-11.658
0.972,0.234,-0.071,1.160,-12.512,-11.230
0.954,0.204,-0.052,0.305,-14.343,-10.254
0.939,0.189,-0.030,-1.953,-14.771,-8.972
0.926,0.199,-0.005,-5.188,-14.160,-6.775
0.926,0.211,0.015,-8.118,-12.756,-3.418
0.941,0.215,0.042,-11.108,-10.498,0.000
0.957,0.222,0.067,-12.878,-7.935,3.052
0.963,0.226,0.100,-13.062,-6.226,4.883
0.969,0.231,0.119,-11.658,-5.920,5.615
0.974,0.237,0.138,-8.911,-6.836,6.165
0.978,0.239,0.145,-5.554,-7.385,6.775
0.982,0.241,0.144,-3.296,-7.324,6.836
0.992,0.247,0.141,-1.404,-6.042,6.958
1.001,0.248,0.131,0.000,-4.517,6.775
1.005,0.248,0.121,1.038,-3.052,7.019
1.008,0.253,0.115,1.648,-1.038,7.324
1.012,0.260,0.110,2.136,1.343,7.507
1.011,0.267,0.102,2.930,3.174,7.202
1.008,0.276,0.093,4.944,3.662,6.531
1.001,0.280,0.076,6.592,2.930,5.188
0.992,0.281,0.059,8.362,2.075,3.906
0.984,0.279,0.039,9.766,1.587,3.113
0.974,0.277,0.020,9.827,1.709,2.869
0.964,0.279,0.008,8.057,2.136,2.747
0.961,0.282,0.001,5.981,2.991,3.174
0.962,0.278,0.000,3.418,3.784,3.418
0.964,0.272,0.001,1.221,4.211,3.296
0.973,0.264,0.013,-0.488,3.906,2.869
0.980,0.266,0.025,-1.221,3.052,2.441
0.985,0.269,0.036,-1.038,1.221,1.282
0.982,0.271,0.042,0.366,-1.221,0.671
0.974,0.270,0.045,1.465,-2.625,0.122
0.966,0.269,0.048,1.770,-3.052,-0.305
0.962,0.267,0.050,1.465,-2.869,-0.427
0.965,0.264,0.048,1.160,-2.136,0.061
0.966,0.258,0.043,0.366,-1.099,0.732
0.971,0.261,0.046,-0.183,0.122,1.587
0.977,0.268,0.054,-1.221,1.160,1.953
0.982,0.279,0.060,-1.648,1.465,1.953
0.987,0.288,0.063,-1.648,1.282,1.831
0.989,0.290,0.063,-1.038,0.488,1.160
0.988,0.287,0.065,-0.854,-0.549,-0.122
0.987,0.283,0.065,-0.366,-1.709,-0.977
0.983,0.272,0.068,0.000,-2.502,-1.526
0.979,0.260,0.073,-0.061,-3.113,-1.953
0.977,0.254,0.079,-0.244,-2.930,-1.892
0.978,0.254,0.088,-0.671,-1.953,-1.404
0.977,0.257,0.090,-0.671,-0.549,-0.977
0.977,0.265,0.090,0.366,0.488,-0.305
0.975,0.270,0.084,1.404,0.916,-0.061
0.976,0.274,0.077,2.075,1.221,0.244
0.976,0.275,0.070,2.869,1.282,0.366
0.979,0.275,0.062,3.418,0.977,0.427
0.976,0.276,0.058,3.174,0.488,0.183
0.974,0.280,0.057,3.113,-0.061,0.366
0.973,0.281,0.060,2.808,-0.305,-0.122
0.972,0.283,0.062,2.563,-0.610,-0.549
0.973,0.287,0.067,2.930,-1.038,-1.099
0.975,0.293,0.071,3.845,-1.953,-1.709
0.974,0.297,0.077,5.005,-3.113,-2.625
0.977,0.297,0.076,7.874,-5.066,-3.296
0.977,0.289,0.072,10.986,-7.751,-4.150
0.974,0.279,0.065,13.855,-10.315,-4.822
0.972,0.266,0.055,15.686,-12.085,-5.371
0.970,0.255,0.045,15.869,-12.573,-5.676
0.963,0.244,0.036,14.099,-12.085,-5.676
0.956,0.237,0.031,11.597,-10.681,-4.761
0.948,0.231,0.029,7.019,-8.423,-4.211
0.942,0.230,0.033,1.892,-5.615,-3.357
0.940,0.234,0.047,-2.747,-2.808,-2.441
0.949,0.240,0.063,-6.714,-0.671,-1.465
0.958,0.244,0.082,-8.850,0.244,-0.916
0.968,0.250,0.100,-7.935,-0.244,-0.366
0.974,0.256,0.114,-5.554,-1.587,-0.427
1.189,0.949,0.907,197.815,-133.789,288.940
1.326,0.926,0.906,173.096,-112.732,264.465
1.330,0.872,0.861,147.034,-80.444,230.835
1.262,0.786,0.781,126.343,-54.688,189.331
1.064,0.648,0.696,112.000,-38.208,150.757
0.803,0.564,0.550,101.746,-29.968,129.211
0.784,0.653,0.531,89.417,-15.991,129.089
0.745,0.814,0.602,79.407,-27.588,151.245
0.944,0.506,0.704,78.308,-25.024,173.584
0.711,0.244,0.829,32.776,-7.935,170.288
0.655,0.192,1.101,-83.435,-30.457,171.204
0.257,0.880,1.280,-222.229,-4.211,183.655
0.575,1.236,1.307,-264.709,75.562,192.322
1.065,1.299,1.054,-208.496,162.292,172.180
1.128,1.170,0.693,-115.662,221.008,145.508
1.048,1.081,0.248,-29.114,235.657,128.357
0.974,0.972,-0.107,34.363,219.482,133.728
0.927,0.848,-0.361,77.698,183.716,157.532
1.078,0.820,-0.485,107.727,137.939,182.983
1.384,0.799,-0.577,125.305,103.271,191.284
1.541,0.739,-0.646,132.812,79.956,171.814
1.568,0.632,-0.723,130.127,54.443,136.719
1.566,0.521,-0.800,109.253,26.367,99.609
1.508,0.443,-0.810,67.078,4.272,64.148
1.443,0.421,-0.702,16.418,-14.099,30.945
1.255,0.354,-0.517,-25.085,-37.659,4.517
1.019,0.165,-0.387,-54.016,-60.364,-12.451
0.874,0.030,-0.273,-87.524,-62.073,-22.766
0.845,0.099,-0.064,-126.038,-42.603,-25.696
0.811,0.203,0.126,-145.020,-23.926,-20.630
0.942,0.317,0.332,-136.780,-16.968,-13.062
0.957,0.367,0.451,-106.079,-33.997,-2.502
0.914,0.348,0.509,-62.378,-56.641,7.629
0.885,0.333,0.518,-22.461,-59.204,11.353
0.921,0.286,0.441,7.751,-50.598,15.137
0.992,0.288,0.337,23.132,-37.109,17.944
1.055,0.327,0.235,25.879,-23.987,19.043
1.103,0.360,0.151,21.912,-14.038,16.907
1.085,0.363,0.094,15.259,-7.935,12.024
1.064,0.370,0.069,7.935,-5.493,6.775
1.055,0.369,0.082,1.587,-5.066,2.258
1.033,0.350,0.103,-2.625,-5.554,-1.465
1.001,0.324,0.129,-5.249,-6.409,-3.479
0.977,0.296,0.150,-5.615,-6.897,-4.883
0.949,0.276,0.153,-3.967,-5.737,-5.249
0.922,0.262,0.145,-1.221,-4.456,-4.456
0.915,0.260,0.140,2.075,-3.418,-2.502
0.910,0.253,0.137,5.493,-2.319,0.000
0.963,0.245,0.127,8.667,-2.197,1.343
0.966,0.254,0.118,10.315,-1.343,2.625
0.973,0.260,0.114,11.108,-1.038,3.418
0.993,0.266,0.112,9.949,-0.671,3.357
0.985,0.277,0.116,7.080,-0.977,3.357
0.983,0.293,0.132,4.333,-2.258,2.869
1.001,0.296,0.140,2.197,-2.930,1.831
0.994,0.296,0.152,0.916,-2.991,-0.061
0.987,0.289,0.158,0.916,-2.319,-1.648
0.982,0.278,0.159,0.671,-1.221,-2.625
0.979,0.265,0.154,0.183,0.061,-3.235
0.968,0.245,0.154,-0.122,1.343,-3.357
0.963,0.235,0.152,-0.366,2.808,-2.930
0.962,0.238,0.146,-0.427,4.211,-1.648
0.964,0.240,0.133,-0.183,5.188,-0.183
0.966,0.250,0.124,-0.610,5.981,0.610
0.963,0.263,0.115,-1.099,6.653,0.916
0.962,0.270,0.108,-1.526,7.019,0.610
0.964,0.266,0.109,-2.502,6.165,-0.061
0.976,0.263,0.115,-2.747,4.395,-0.488
0.977,0.263,0.131,-2.258,2.563,-0.488
0.974,0.263,0.139,-1.160,1.221,-0.671
0.970,0.265,0.146,-0.183,0.793,-0.854
0.967,0.269,0.148,0.427,1.160,-1.038
0.971,0.266,0.146,0.000,2.258,-1.709
0.973,0.262,0.142,-0.488,3.235,-2.197
0.976,0.260,0.140,-0.977,4.028,-2.258
0.977,0.257,0.137,-1.404,4.822,-2.502
0.973,0.253,0.134,-1.282,5.432,-2.502
0.970,0.249,0.129,-1.221,6.104,-2.686
0.969,0.246,0.124,-1.587,6.714,-2.869
0.965,0.248,0.118,-1.526,6.775,-2.625
0.963,0.253,0.117,-1.526,5.676,-1.831
0.965,0.259,0.120,-1.709,4.333,-1.160
0.970,0.262,0.126,-1.404,3.906,-0.854
0.969,0.258,0.126,-1.221,4.028,-1.099
0.966,0.250,0.119,-1.465,4.578,-1.709
0.965,0.240,0.113,-1.343,4.944,-1.587
0.964,0.237,0.111,-1.587,5.127,-0.977
0.965,0.240,0.112,-1.709,4.883,-0.305
0.964,0.245,0.112,-1.038,4.028,0.305
0.964,0.251,0.111,-0.183,3.052,0.854
0.968,0.257,0.108,-0.183,2.441,0.977
0.972,0.266,0.112,-0.366,1.709,1.038
0.967,0.273,0.117,-0.732,1.038,0.732
0.972,0.269,0.118,-1.099,0.610,-0.366
0.972,0.262,0.121,-1.282,0.488,-0.977
0.970,0.254,0.120,-1.648,0.610,-1.282
0.969,0.247,0.122,-1.953,0.488,-1.099
0.970,0.248,0.114,-1.526,0.122,-0.610
0.970,0.245,0.113,-0.854,0.122,0.122
0.973,0.251,0.120,-0.366,-0.061,0.244
0.966,0.250,0.122,0.427,-0.366,0.488
0.961,0.242,0.114,1.526,-0.305,0.427
0.964,0.243,0.113,1.831,-0.916,0.671
0.966,0.244,0.111,1.892,-1.404,1.343
0.962,0.241,0.106,1.953,-1.709,1.526
0.963,0.249,0.114,1.282,-1.953,1.343
0.962,0.251,0.121,0.366,-1.892,1.282
0.967,0.247,0.120,-0.122,-1.526,1.343
0.975,0.253,0.122,-0.977,-0.610,1.282
0.979,0.256,0.124,-1.404,-0.061,1.282
0.977,0.262,0.123,-1.221,0.122,1.099
0.977,0.262,0.120,-1.160,0.122,0.732
0.978,0.258,0.121,-1.221,0.366,0.244
0.979,0.253,0.127,-1.343,0.183,-0.244
0.973,0.248,0.130,-1.709,0.305,-0.610
0.968,0.248,0.131,-1.526,0.854,-0.610
0.964,0.251,0.128,-1.526,1.465,-0.305
0.963,0.259,0.123,-1.404,2.136,0.122
0.965,0.267,0.118,-1.343,2.319,0.427
0.790,0.752,1.751,127.747,49.622,316.956
0.938,0.854,1.722,143.616,69.092,290.100
0.927,0.904,1.635,160.950,84.839,257.385
0.635,0.950,1.367,176.147,99.670,235.962
0.668,1.109,1.238,192.566,96.436,234.802
0.881,1.295,1.204,215.759,106.934,238.281
0.951,1.359,0.975,239.380,116.455,238.953
1.009,1.524,0.739,255.066,120.056,232.178
1.089,1.667,0.512,262.756,117.493,227.234
1.210,1.640,0.288,257.935,117.065,217.957
1.215,1.625,0.128,237.915,125.793,196.533
1.234,1.541,-0.010,204.956,139.709,168.335
1.236,1.409,-0.100,165.649,144.104,137.634
1.120,1.322,-0.113,127.930,143.005,107.544
0.968,1.311,-0.061,101.746,134.644,82.581
0.759,1.396,-0.019,93.201,123.901,65.674
0.570,1.567,-0.069,100.586,119.690,58.350
0.450,1.807,-0.233,123.108,119.873,56.152
0.514,1.854,-0.413,156.860,128.296,57.556
0.713,1.640,-0.631,184.631,134.949,59.204
0.904,1.307,-0.839,187.866,125.977,59.448
1.091,0.987,-0.983,159.424,103.516,50.903
1.217,0.781,-0.986,106.995,81.726,34.668
1.224,0.703,-0.894,50.842,58.716,12.390
1.160,0.650,-0.765,10.132,32.532,-8.911
1.055,0.565,-0.643,-11.475,7.324,-23.315
1.007,0.445,-0.533,-19.592,-10.925,-29.236
0.996,0.351,-0.436,-22.583,-23.193,-31.555
0.985,0.268,-0.347,-25.146,-30.029,-31.921
0.965,0.213,-0.259,-27.405,-33.752,-32.104
0.943,0.197,-0.172,-29.785,-34.973,-33.081
0.908,0.193,-0.098,-32.104,-35.522,-33.569
0.893,0.194,-0.030,-33.691,-34.973,-31.067
0.889,0.200,0.020,-34.851,-34.180,-26.306
0.894,0.208,0.054,-35.583,-33.203,-21.240
0.900,0.219,0.082,-35.950,-31.616,-17.578
0.895,0.236,0.112,-35.583,-29.663,-15.503
0.871,0.250,0.139,-34.363,-28.320,-14.160
0.839,0.253,0.169,-30.273,-26.001,-11.108
0.826,0.247,0.188,-24.902,-20.142,-6.531
0.849,0.241,0.185,-18.188,-11.414,-1.770
0.882,0.238,0.163,-10.681,-4.883,3.113
0.913,0.234,0.130,-3.845,-2.258,6.714
0.932,0.232,0.093,0.671,-1.831,8.240
0.949,0.231,0.057,4.150,-1.953,8.911
0.960,0.230,0.027,6.287,-1.404,9.216
0.971,0.233,-0.000,7.385,-0.732,9.583
0.974,0.245,-0.023,7.507,-0.427,10.132
0.980,0.266,-0.041,7.263,-0.793,10.376
0.982,0.287,-0.051,6.592,-1.404,9.644
0.980,0.305,-0.062,7.080,-3.113,8.789
0.974,0.320,-0.070,7.019,-5.188,8.057
0.972,0.329,-0.076,6.470,-6.287,7.263
0.980,0.336,-0.082,5.371,-6.531,6.592
0.986,0.345,-0.079,3.662,-6.104,5.798
0.988,0.350,-0.071,0.916,-4.700,5.066
0.997,0.357,-0.055,-1.282,-3.113,4.456
1.000,0.361,-0.037,-3.418,-2.258,3.357
1.001,0.362,-0.017,-4.761,-2.075,2.319
1.008,0.359,-0.002,-5.127,-1.892,1.099
1.017,0.356,0.011,-4.028,-2.319,-0.549
1.018,0.343,0.018,-2.197,-3.723,-2.380
1.011,0.329,0.019,0.549,-5.310,-3.601
0.999,0.326,0.020,2.808,-6.287,-4.700
0.987,0.320,0.015,4.700,-7.080,-4.944
0.978,0.310,0.004,6.226,-6.714,-4.211
0.973,0.300,-0.008,6.165,-5.493,-3.662
0.970,0.292,-0.017,4.272,-3.967,-3.418
0.973,0.288,-0.021,2.075,-2.747,-2.808
0.973,0.286,-0.019,-0.427,-2.075,-2.380
0.974,0.291,-0.013,-2.197,-1.709,-2.625
0.969,0.300,-0.004,-3.296,-2.258,-2.930
0.967,0.305,0.000,-3.601,-3.235,-3.052
0.966,0.306,0.005,-3.662,-4.333,-3.357
0.962,0.301,0.006,-2.563,-4.944,-3.357
0.961,0.291,0.009,-1.892,-4.517,-3.357
0.966,0.282,0.008,-1.282,-3.174,-3.174
0.969,0.275,0.009,-0.732,-2.258,-2.991
0.972,0.271,0.013,-0.549,-1.587,-2.686
0.965,0.271,0.015,-1.221,-1.343,-2.563
0.960,0.274,0.021,-1.343,-1.038,-1.892
0.959,0.282,0.025,-1.343,-0.366,-1.282
0.964,0.289,0.027,-1.160,0.244,-0.671
0.967,0.297,0.026,-0.427,0.427,-0.061
0.976,0.302,0.021,0.854,0.549,-0.061
0.979,0.302,0.011,1.831,0.000,-0.732
0.979,0.301,0.003,2.563,-0.854,-1.343
0.978,0.296,-0.002,2.869,-1.709,-2.197
0.977,0.289,-0.004,2.808,-2.258,-2.747
0.970,0.287,-0.004,2.380,-2.991,-2.869
0.964,0.287,-0.005,1.587,-3.418,-2.991
0.953,0.290,-0.004,0.305,-3.479,-3.357
0.942,0.291,-0.001,-0.366,-3.418,-2.808
0.936,0.292,0.001,-1.587,-2.686,-2.136
0.938,0.294,0.004,-2.502,-1.953,-1.282
0.944,0.294,0.007,-2.625,-1.221,-0.488
0.958,0.294,0.011,-2.136,-0.732,-0.366
0.962,0.295,0.013,-1.221,-1.343,-0.671
0.963,0.297,0.012,0.793,-2.563,-0.732
0.965,0.301,0.010,2.319,-3.845,-1.282
0.964,0.302,0.005,3.296,-4.517,-1.831
0.966,0.300,-0.002,3.601,-4.639,-1.892
0.969,0.297,-0.006,2.991,-4.150,-1.709
0.973,0.296,-0.006,0.916,-2.991,-1.709
0.981,0.295,-0.003,-0.549,-2.319,-1.343
0.985,0.297,0.004,-1.953,-2.014,-1.892
0.986,0.304,0.015,-2.563,-2.563,-2.747
0.986,0.307,0.021,-2.136,-4.272,-3.601
0.982,0.305,0.024,-0.977,-6.165,-4.456
0.973,0.301,0.022,-0.061,-7.874,-5.249
0.961,0.292,0.023,1.099,-8.606,-5.066
0.955,0.284,0.026,1.221,-7.141,-4.456
0.954,0.276,0.030,0.366,-4.028,-3.296
0.955,0.273,0.035,-0.610,-0.854,-1.892
0.964,0.275,0.037,-1.526,1.526,-0.305
0.970,0.279,0.039,-2.502,3.296,0.793
0.977,0.286,0.041,-2.502,3.906,1.343
0.980,0.295,0.042,-1.953,3.479,1.099
0.982,0.297,0.041,-0.671,2.075,0.671
0.212,-1.531,0.804,109.863,-32.227,-20.203
0.058,-1.607,0.865,130.188,-28.503,-6.592
-0.001,-1.652,0.907,153.259,-22.949,14.282
-0.028,-1.638,0.913,178.284,-21.912,38.452
-0.027,-1.600,0.901,204.834,-27.893,61.096
-0.031,-1.551,0.865,231.018,-38.879,81.909
-0.031,-1.473,0.804,255.676,-50.537,102.295
0.003,-1.391,0.758,275.818,-60.486,122.620
0.067,-1.306,0.731,290.710,-70.557,142.212
0.130,-1.183,0.730,300.354,-81.726,158.630
0.158,-1.019,0.790,303.711,-91.675,170.471
0.148,-0.817,0.867,301.941,-95.093,179.932
0.125,-0.550,0.914,300.903,-90.576,190.674
0.167,-0.195,0.896,303.101,-82.031,204.956
0.270,0.226,0.822,308.228,-72.021,223.145
0.428,0.725,0.670,313.782,-60.791,244.812
0.647,1.197,0.491,315.857,-46.326,267.151
0.947,1.480,0.298,305.115,-21.667,281.982
1.268,1.560,0.126,269.836,13.916,275.757
1.447,1.906,0.127,208.557,46.875,244.873
1.319,1.620,0.114,144.775,66.223,242.920
1.308,2.021,0.345,106.995,49.500,208.191
1.296,1.858,0.451,96.191,46.753,180.908
1.156,1.613,0.926,60.791,18.494,193.726
1.188,1.645,1.586,-39.490,-29.785,240.784
0.876,2.654,1.597,-193.054,4.700,282.166
1.553,3.170,1.264,-212.036,156.677,201.843
1.647,2.913,0.649,-91.064,263.245,85.754
0.922,2.277,-0.145,67.139,247.437,12.512
0.505,1.561,-0.869,196.716,184.998,-34.058
0.423,1.035,-1.551,271.790,114.929,-38.818
0.629,0.736,-2.007,296.143,37.598,-21.484
0.791,0.503,-2.209,274.109,-10.132,-8.240
0.997,0.367,-2.238,216.553,-20.935,-3.540
1.309,0.253,-2.182,138.977,-24.780,-7.507
