aX,aY,aZ,gX,gY,gZ
0.491,1.983,0.773,112.671,-20.386,8.484
0.655,1.918,1.032,146.973,-37.537,31.250
0.804,1.763,1.350,165.833,-52.368,65.186
0.891,1.557,1.561,154.358,-56.335,108.337
0.951,1.232,1.611,113.342,-52.673,156.555
0.918,0.838,1.471,52.490,-45.105,206.665
0.646,0.448,1.197,-12.390,-36.804,247.009
0.277,0.002,0.835,-67.322,-28.320,265.076
-0.013,-0.306,0.493,-99.854,-18.494,252.502
-0.164,-0.555,0.224,-99.182,-18.982,216.553
-0.130,-0.804,0.063,-55.176,-17.456,167.603
-0.052,-1.117,0.164,12.817,-15.991,127.319
-0.015,-1.487,0.508,74.829,-20.264,100.281
-0.017,-1.859,1.047,107.117,-16.052,81.177
0.021,-2.079,1.491,100.037,2.136,63.049
1.308,-4.000,3.605,47.607,30.762,49.133
-0.828,-0.802,0.439,-228.455,142.212,45.227
-0.996,-1.879,-1.010,-276.306,160.522,5.798
-0.074,-3.189,0.925,109.863,-6.531,-59.692
0.229,-2.908,1.925,218.018,-33.997,-101.990
0.757,-2.447,1.488,64.331,-3.296,-81.421
0.444,-2.215,1.516,-85.022,24.231,-39.795
0.368,-2.062,1.280,-169.434,49.133,-16.479
0.490,-1.595,0.448,-217.224,77.637,-0.977
0.211,-1.168,0.159,-171.631,62.866,3.174
0.098,-1.162,0.339,-83.740,25.696,2.991
0.113,-1.202,0.481,-24.719,-0.427,9.705
0.029,-1.228,0.675,6.226,-18.677,16.479
-0.066,-1.292,0.886,18.799,-23.926,17.273
-0.049,-1.300,1.060,8.423,-7.263,9.033
0.040,-1.177,1.114,-17.761,19.592,-6.042
0.149,-1.023,1.110,-41.870,38.391,-25.818
0.298,-0.850,1.108,-50.903,41.809,-46.631
0.446,-0.577,1.082,-44.250,32.715,-67.017
0.572,-0.337,1.057,-23.376,11.963,-84.229
0.604,-0.091,1.050,3.174,-10.803,-94.849
0.568,0.151,1.059,26.733,-24.231,-100.586
0.523,0.408,1.090,39.001,-24.597,-104.614
0.464,0.719,1.071,36.316,-13.733,-108.215
0.404,1.025,1.043,24.231,-0.183,-110.413
0.366,1.250,1.017,12.390,11.841,-107.788
0.342,1.396,1.021,8.728,20.142,-100.342
0.332,1.428,1.069,15.747,22.827,-91.553
0.341,1.352,1.143,27.771,20.386,-80.933
0.325,1.218,1.216,37.537,15.625,-67.139
0.279,1.042,1.272,42.603,8.972,-55.237
0.237,0.874,1.289,43.152,1.770,-47.058
0.199,0.708,1.279,38.391,-4.211,-40.405
0.140,0.568,1.258,28.931,-9.888,-34.241
0.077,0.464,1.204,14.832,-14.221,-29.846
0.015,0.392,1.128,-1.160,-15.930,-27.527
-0.014,0.344,1.037,-16.907,-16.052,-28.625
-0.013,0.339,0.932,-29.968,-14.587,-31.677
0.005,0.358,0.841,-36.377,-12.817,-35.034
0.043,0.377,0.755,-34.912,-10.437,-36.926
0.066,0.396,0.697,-26.062,-10.803,-36.255
0.078,0.379,0.671,-12.024,-14.282,-33.569
0.083,0.333,0.683,1.343,-18.250,-30.273
0.086,0.276,0.712,11.047,-20.264,-26.306
0.083,0.206,0.750,14.771,-19.714,-21.912
0.060,0.141,0.788,12.024,-17.273,-17.273
0.048,0.104,0.806,4.150,-13.794,-13.977
0.044,0.087,0.814,-4.883,-9.949,-11.658
0.050,0.084,0.817,-13.123,-5.188,-10.071
0.065,0.073,0.810,-18.005,0.000,-8.179
0.073,0.046,0.803,-18.860,4.639,-6.409
0.069,0.009,0.809,-15.564,7.507,-4.700
0.058,-0.030,0.822,-8.179,8.789,-3.845
0.059,-0.068,0.851,1.892,8.484,-3.357
0.045,-0.108,0.900,13.306,7.263,-2.563
0.028,-0.154,0.958,23.743,5.493,-1.282
0.015,-0.194,1.010,28.320,4.395,-0.488
-0.004,-0.218,1.054,26.123,4.211,-0.305
-0.016,-0.231,1.078,18.982,5.188,-1.160
-0.018,-0.232,1.082,9.583,6.531,-2.441
-0.010,-0.211,1.065,0.366,8.240,-4.150
0.007,-0.182,1.038,-5.920,9.338,-6.104
0.033,-0.149,1.008,-7.568,8.606,-7.446
0.054,-0.118,0.996,-4.211,5.615,-7.568
0.062,-0.109,0.995,1.892,0.854,-6.470
0.070,-0.109,1.001,7.996,-3.174,-4.272
0.071,-0.104,1.003,10.986,-4.822,-2.380
0.065,-0.100,1.011,11.292,-4.944,-0.610
0.070,-0.099,1.010,10.010,-4.150,0.244
0.081,-0.105,1.004,7.202,-3.113,0.793
0.082,-0.115,1.000,3.662,-2.563,1.892
0.068,-0.120,0.984,0.854,-2.319,3.235
0.052,-0.128,0.962,-1.892,-1.709,3.784
0.038,-0.132,0.944,-3.418,-1.343,3.784
0.025,-0.130,0.926,-3.235,-1.526,2.930
0.021,-0.127,0.917,-2.014,-1.404,1.282
0.020,-0.127,0.916,0.366,-1.404,-0.122
0.025,-0.131,0.924,3.052,-1.282,-1.099
0.030,-0.131,0.938,4.395,-0.854,-1.953
0.037,-0.131,0.947,4.517,0.000,-2.563
0.051,-0.132,0.952,3.967,0.610,-3.052
0.058,-0.131,0.955,3.052,1.282,-3.113
0.070,-0.126,0.957,2.258,1.831,-2.747
0.081,-0.130,0.957,2.197,1.465,-2.014
0.085,-0.132,0.955,1.343,0.488,-0.549
0.074,-0.128,0.950,-0.122,0.549,1.221
0.064,-0.125,0.949,-1.404,1.038,2.380
0.060,-0.124,0.943,-2.441,1.953,2.441
0.057,-0.118,0.939,-2.380,2.441,2.319
0.056,-0.114,0.938,-1.221,2.686,2.258
0.050,-0.115,0.945,0.549,2.930,1.831
0.048,-0.118,0.959,2.014,2.930,0.916
0.055,-0.119,0.966,3.296,2.686,-0.122
0.060,-0.121,0.972,3.906,2.502,-0.916
0.060,-0.126,0.982,4.700,2.380,-0.732
0.061,-0.132,0.985,5.249,1.343,-0.183
0.052,-0.140,0.993,4.822,-0.122,0.488
0.045,-0.144,0.997,3.357,-0.977,0.488
0.038,-0.143,0.991,1.343,-0.916,0.305
0.039,-0.142,0.984,-0.916,-0.244,-0.427
0.042,-0.132,0.972,-2.808,0.427,-1.099
0.046,-0.129,0.964,-3.357,0.549,-1.221
0.044,-0.127,0.957,-2.991,0.488,-1.343
0.041,-0.131,0.959,-1.892,0.122,-1.404
0.323,1.991,0.840,69.702,-18.677,10.620
0.435,1.957,1.000,106.934,-39.734,29.358
0.470,1.806,1.323,132.202,-57.068,52.490
0.598,1.597,1.588,130.554,-65.308,77.393
0.714,1.371,1.788,99.915,-60.913,104.065
0.758,1.067,1.893,45.227,-48.889,130.859
0.869,0.766,1.795,-20.752,-33.386,156.189
0.902,0.507,1.553,-79.041,-20.996,179.871
0.753,0.205,1.205,-113.525,-18.677,199.036
0.568,-0.157,0.901,-117.371,-22.217,205.505
0.478,-0.508,0.654,-93.872,-26.306,194.763
0.465,-0.841,0.578,-53.040,-31.555,171.936
0.515,-1.219,0.637,-11.047,-35.950,149.841
0.538,-1.604,0.771,12.268,-35.339,136.230
0.507,-1.904,0.911,12.207,-28.320,129.333
0.476,-2.197,0.974,-6.104,-16.968,123.657
0.457,-2.541,0.972,-35.950,-3.174,118.896
0.355,-2.834,0.927,-66.895,13.245,117.676
1.086,-4.000,3.135,-103.149,32.593,115.051
-2.544,-2.361,-0.227,-304.932,122.864,27.405
-1.133,-1.562,-0.556,-280.823,107.117,-58.044
0.871,-3.067,0.649,14.160,-23.682,-59.509
0.249,-3.856,2.054,128.479,-52.917,-62.622
-0.168,-2.755,0.636,0.366,17.822,-45.410
-0.323,-2.287,0.641,-68.115,25.452,-65.125
-0.101,-2.125,0.807,-69.397,16.113,-103.088
0.127,-1.811,0.765,-40.222,24.292,-131.042
0.197,-1.562,0.861,-17.944,32.776,-146.362
0.272,-1.340,1.003,-18.677,35.034,-154.846
0.404,-1.021,1.088,-20.630,32.410,-159.546
0.562,-0.691,1.143,-15.503,28.442,-161.926
0.683,-0.436,1.201,-3.418,20.691,-160.034
0.781,-0.207,1.248,9.644,11.108,-152.222
0.843,0.083,1.283,21.484,4.517,-140.381
0.910,0.373,1.305,32.471,0.061,-129.272
0.945,0.625,1.309,41.809,-3.784,-116.394
0.909,0.875,1.264,46.082,-6.775,-101.440
0.814,1.135,1.192,44.861,-8.118,-87.891
0.719,1.318,1.119,42.053,-8.301,-75.867
0.634,1.483,1.069,37.903,-5.005,-61.768
0.624,1.545,1.023,34.363,-0.916,-46.997
0.549,1.547,1.055,31.738,-3.662,-39.001
0.474,1.509,1.060,28.015,-9.460,-32.654
0.389,1.516,1.029,21.606,-15.015,-31.067
0.335,1.522,0.971,18.738,-20.020,-29.968
0.286,1.442,0.915,22.034,-22.034,-26.001
0.258,1.330,0.892,28.259,-21.790,-20.935
0.239,1.164,0.910,34.424,-20.935,-12.878
0.192,1.007,0.926,35.156,-19.348,-2.869
0.143,0.851,0.924,29.785,-17.517,6.897
0.096,0.710,0.890,20.813,-15.442,14.648
0.052,0.563,0.845,10.437,-11.658,20.142
0.018,0.429,0.811,2.197,-7.568,22.888
-0.009,0.300,0.792,-1.770,-6.531,23.132
-0.031,0.165,0.779,-1.709,-7.446,21.729
-0.043,0.034,0.797,1.221,-9.399,18.372
-0.034,-0.061,0.830,5.737,-10.071,15.686
-0.031,-0.155,0.884,9.155,-13.611,13.000
-0.046,-0.238,0.922,9.155,-19.470,9.094
-0.047,-0.273,0.921,3.906,-18.250,5.615
-0.045,-0.271,0.896,-2.625,-13.428,2.441
-0.041,-0.257,0.872,-7.629,-8.911,-0.732
-0.041,-0.252,0.873,-10.437,-6.226,-3.052
-0.023,-0.240,0.878,-11.597,-5.493,-4.639
0.007,-0.215,0.886,-12.024,-3.296,-5.920
0.036,-0.189,0.889,-10.925,0.061,-5.859
0.056,-0.166,0.901,-8.362,1.953,-4.456
0.059,-0.164,0.922,-5.371,2.563,-2.747
0.057,-0.146,0.939,-3.784,3.601,-0.671
0.057,-0.132,0.950,-3.479,5.066,0.732
0.054,-0.120,0.953,-4.211,7.324,1.770
0.056,-0.115,0.948,-4.211,9.583,2.502
0.054,-0.123,0.949,-2.625,10.376,2.930
0.039,-0.133,0.958,0.000,9.949,3.052
0.029,-0.140,0.969,3.784,8.545,2.502
0.029,-0.148,0.980,8.118,5.798,1.892
0.016,-0.145,0.991,11.963,2.502,1.404
0.006,-0.150,1.001,15.259,0.183,0.854
-0.005,-0.163,1.022,16.541,-1.526,-0.305
-0.001,-0.166,1.031,13.794,-1.831,-2.258
0.007,-0.155,1.031,8.545,-0.671,-3.418
0.014,-0.136,1.021,3.174,0.488,-4.395
0.031,-0.126,1.012,-0.244,1.038,-5.310
0.046,-0.117,1.001,-2.502,0.854,-5.432
0.040,-0.104,0.984,-4.578,-0.183,-5.188
0.040,-0.095,0.961,-5.310,-1.404,-5.493
0.048,-0.082,0.937,-4.761,-2.014,-5.127
0.053,-0.073,0.924,-2.197,-2.502,-4.395
0.061,-0.067,0.916,0.977,-3.479,-3.723
0.071,-0.069,0.916,4.517,-4.150,-2.686
0.069,-0.081,0.933,7.263,-3.906,-1.099
0.060,-0.090,0.938,6.531,-2.441,0.366
0.061,-0.096,0.948,4.333,-0.549,1.465
0.072,-0.097,0.944,2.014,1.404,2.686
0.067,-0.100,0.946,0.000,3.296,4.150
0.053,-0.102,0.953,-0.854,4.272,5.493
0.044,-0.108,0.960,-1.160,4.883,5.798
0.045,-0.110,0.966,-1.221,5.798,5.127
0.048,-0.113,0.972,-0.793,5.981,4.639
0.041,-0.117,0.978,-0.183,5.310,4.333
0.040,-0.119,0.979,0.122,4.761,3.784
0.039,-0.123,0.976,0.671,3.906,3.357
0.035,-0.126,0.966,1.343,3.113,3.174
0.028,-0.127,0.961,1.892,2.869,2.991
0.025,-0.131,0.963,3.235,2.747,2.380
0.034,-0.133,0.968,4.456,2.441,1.648
0.037,-0.131,0.973,4.639,1.648,0.916
0.035,-0.130,0.977,3.967,0.977,0.610
0.043,-0.128,0.977,2.563,0.610,0.244
0.050,-0.124,0.974,0.977,0.854,0.000
0.053,-0.119,0.968,-0.183,1.099,-0.244
0.060,-0.111,0.970,-0.732,0.793,-0.183
0.068,-0.108,0.973,-1.099,0.366,0.000
0.073,-0.101,0.971,-1.709,-0.061,0.488
0.075,-0.097,0.967,-2.441,-0.488,1.465
0.071,-0.090,0.960,-3.113,-0.916,2.502
0.065,-0.089,0.954,-2.869,-1.343,3.601
0.057,-0.090,0.940,-2.258,-1.221,4.517
0.046,-0.094,0.934,-1.038,-0.671,4.944
0.691,-1.260,1.019,-2.625,0.854,118.591
0.482,-1.667,1.004,-3.296,-5.676,123.657
0.304,-2.060,1.003,-8.362,-8.972,121.094
0.142,-2.377,1.045,-13.611,-7.446,112.061
0.009,-2.624,1.078,-18.494,-2.136,94.727
-0.073,-2.736,1.076,-26.184,3.540,70.984
-0.106,-2.739,1.023,-35.522,6.592,45.166
-0.121,-3.187,1.221,-43.457,8.423,27.344
-0.265,-1.918,0.637,-76.172,21.545,16.235
-0.154,-2.509,0.505,-64.148,16.174,-24.902
-0.183,-2.317,0.624,-17.944,-0.916,-34.973
-0.269,-2.055,0.546,-4.028,0.916,-39.429
-0.228,-1.952,0.574,-0.610,0.977,-55.237
-0.218,-1.769,0.615,7.996,3.540,-67.078
-0.198,-1.627,0.727,16.113,8.667,-79.346
-0.091,-1.453,0.875,17.700,18.127,-92.346
0.090,-1.246,0.985,14.709,27.527,-103.760
0.225,-1.038,1.082,12.451,30.945,-109.558
0.343,-0.827,1.186,12.817,29.419,-108.398
0.480,-0.619,1.254,16.052,24.414,-102.966
0.564,-0.451,1.332,24.292,15.198,-94.238
0.597,-0.313,1.404,34.607,4.395,-82.642
0.581,-0.166,1.478,40.161,-2.747,-71.960
0.558,-0.015,1.512,39.368,-3.967,-65.186
0.539,0.135,1.503,33.752,-1.343,-61.951
0.521,0.307,1.426,26.367,1.221,-60.547
0.487,0.460,1.334,20.569,0.610,-59.021
0.438,0.594,1.230,16.235,-0.671,-55.786
0.366,0.730,1.130,13.550,-0.793,-51.208
0.300,0.821,1.030,13.428,-1.892,-47.668
0.209,0.871,0.994,16.174,-4.822,-47.791
0.170,0.889,0.967,21.606,-9.338,-51.880
0.138,0.915,0.991,27.466,-15.198,-58.838
0.140,0.908,1.022,33.569,-19.226,-62.256
0.143,0.870,1.055,36.194,-18.555,-61.951
0.152,0.819,1.071,34.973,-15.686,-59.204
0.159,0.757,1.076,31.494,-15.625,-54.932
0.145,0.679,1.078,25.513,-18.005,-49.133
0.115,0.608,1.058,14.954,-17.212,-41.992
0.082,0.572,1.015,1.892,-12.512,-35.156
0.061,0.549,0.957,-9.583,-10.132,-31.372
0.039,0.512,0.886,-18.250,-11.169,-29.236
0.019,0.483,0.807,-24.292,-12.451,-27.100
0.013,0.462,0.729,-27.588,-12.085,-24.414
0.011,0.442,0.665,-25.635,-13.672,-22.278
0.002,0.417,0.617,-17.395,-15.442,-19.226
-0.016,0.374,0.597,-6.653,-14.099,-15.930
-0.038,0.307,0.615,4.639,-11.475,-13.367
-0.033,0.208,0.664,14.648,-9.033,-12.085
-0.032,0.108,0.724,19.836,-6.104,-10.498
-0.039,0.031,0.781,20.142,-2.808,-8.728
-0.026,-0.024,0.830,17.212,0.916,-7.141
-0.019,-0.058,0.872,11.414,2.991,-5.615
-0.014,-0.070,0.887,4.761,3.662,-4.089
-0.016,-0.068,0.890,-1.526,4.700,-2.625
-0.020,-0.056,0.893,-6.531,6.226,-1.343
-0.018,-0.038,0.893,-9.521,8.484,-0.854
0.004,-0.023,0.891,-8.728,10.986,-0.366
0.036,-0.020,0.895,-4.333,11.780,0.427
0.051,-0.036,0.921,2.563,10.925,2.930
0.045,-0.071,0.959,9.460,10.010,6.104
0.028,-0.117,1.000,13.428,8.789,8.484
0.013,-0.165,1.026,14.099,7.690,9.277
0.003,-0.200,1.042,12.512,7.324,9.216
0.002,-0.221,1.049,9.033,7.507,8.423
0.000,-0.229,1.051,4.822,7.263,7.385
0.002,-0.229,1.047,1.404,6.348,6.165
0.005,-0.227,1.035,-0.793,5.249,4.639
0.006,-0.223,1.021,-2.014,4.089,3.418
-0.001,-0.223,1.014,-1.892,3.052,2.747
-0.001,-0.213,1.012,-1.770,1.892,1.343
0.006,-0.200,1.009,-1.343,0.732,-0.305
0.014,-0.186,1.001,-0.610,-0.671,-1.404
0.016,-0.171,0.990,0.366,-2.258,-1.770
0.014,-0.163,0.985,1.709,-3.601,-1.343
0.010,-0.161,0.989,3.174,-4.211,-1.343
0.007,-0.152,0.989,2.380,-3.845,-1.953
0.012,-0.140,0.988,0.183,-3.052,-2.808
0.019,-0.129,0.976,-1.526,-2.380,-3.479
0.023,-0.113,0.965,-2.869,-2.136,-3.845
0.019,-0.102,0.954,-3.174,-2.136,-3.906
0.017,-0.100,0.949,-2.441,-1.953,-3.662
0.022,-0.099,0.944,-2.136,-1.526,-3.723
0.035,-0.100,0.942,-2.197,-0.732,-3.540
0.046,-0.101,0.938,-2.563,0.000,-2.930
0.050,-0.094,0.932,-2.808,0.488,-1.587
0.039,-0.092,0.931,-2.502,0.305,0.122
0.029,-0.093,0.934,-1.221,-0.183,1.587
0.024,-0.090,0.930,-0.916,0.244,2.014
0.024,-0.086,0.920,-0.549,0.732,2.502
0.020,-0.084,0.910,0.732,1.160,3.296
0.015,-0.090,0.905,2.869,0.977,4.211
0.004,-0.099,0.907,4.944,1.221,5.066
-0.007,-0.113,0.920,7.080,1.465,5.371
-0.014,-0.130,0.943,7.751,2.075,4.822
-0.017,-0.143,0.967,7.080,3.174,3.052
-0.003,-0.151,0.991,4.944,4.822,0.793
0.021,-0.156,1.005,1.892,6.409,-0.793
0.037,-0.157,1.014,-0.549,6.592,-1.160
0.044,-0.161,1.015,-2.258,5.310,-0.305
0.044,-0.159,1.004,-3.723,3.479,1.038
0.038,-0.163,0.990,-4.333,1.465,2.319
0.020,-0.163,0.970,-3.967,-0.366,3.662
0.001,-0.167,0.956,-3.113,-1.526,4.150
-0.009,-0.169,0.949,-1.892,-1.709,3.418
-0.012,-0.168,0.947,-1.038,-1.648,2.197
-0.008,-0.165,0.949,-0.427,-1.099,0.732
-0.006,-0.158,0.954,-0.183,-0.427,-0.549
0.001,-0.151,0.958,-0.183,0.244,-1.526
0.010,-0.146,0.962,-0.305,0.427,-2.380
0.022,-0.142,0.966,-0.671,0.610,-2.869
0.028,-0.134,0.966,-1.526,1.160,-2.686
0.034,-0.119,0.957,-2.869,1.770,-2.441
0.040,-0.106,0.947,-2.991,1.831,-1.892
0.043,-0.098,0.943,-1.831,1.404,-1.221
0.043,-0.096,0.948,-0.061,0.916,-0.610
0.045,-0.103,0.959,1.526,0.732,-0.061
0.049,-0.113,0.964,2.808,0.549,0.732
0.038,-0.118,0.966,2.930,0.916,1.282
0.662,-0.900,1.287,-24.963,-9.399,119.507
0.644,-1.162,1.245,-27.039,-16.785,117.676
0.556,-1.464,1.156,-28.748,-25.635,116.272
0.451,-1.746,1.016,-29.175,-32.654,114.258
0.289,-1.956,0.867,-28.137,-39.978,111.877
0.084,-2.119,0.750,-26.672,-47.363,105.347
-0.067,-2.294,0.631,-26.917,-50.293,91.797
-0.609,-3.984,3.091,-82.764,-32.043,80.811
-2.438,-3.804,-1.265,-297.363,71.655,59.692
-1.235,-3.637,0.269,-113.831,-0.366,-61.035
0.234,-2.241,0.673,114.929,-98.450,-149.414
0.871,-1.875,0.598,185.974,-136.108,-138.000
0.874,-2.384,0.849,109.680,-83.313,-72.571
0.197,-2.160,0.108,-46.387,38.635,-3.296
0.000,-1.535,-0.067,-95.337,70.923,-4.333
0.322,-1.261,-0.067,-54.504,50.049,-28.503
0.439,-1.239,0.217,13.977,26.550,-25.818
0.354,-1.229,0.567,72.937,-3.113,-10.925
0.228,-1.225,0.895,96.191,-21.973,2.563
0.127,-1.206,1.188,80.566,-13.611,11.169
0.116,-1.098,1.336,41.504,12.878,13.245
0.150,-0.883,1.355,1.221,39.063,9.399
0.162,-0.670,1.342,-27.100,51.208,-0.854
0.140,-0.463,1.317,-40.649,49.622,-16.724
0.122,-0.245,1.293,-39.001,41.992,-37.415
0.162,-0.007,1.254,-25.269,33.081,-62.195
0.289,0.247,1.224,-1.526,25.330,-83.679
0.323,0.477,1.254,28.748,18.311,-93.567
0.354,0.613,1.289,56.519,12.268,-93.079
0.314,0.709,1.372,71.106,6.836,-92.224
0.262,0.824,1.401,69.824,2.686,-90.515
0.213,0.903,1.422,55.481,-0.488,-88.013
0.193,0.955,1.390,31.433,-2.014,-82.825
0.153,1.007,1.301,5.310,-0.977,-76.843
0.091,1.046,1.195,-14.099,-2.319,-73.181
0.053,1.006,1.123,-24.292,-8.057,-70.801
0.052,0.953,1.055,-30.029,-9.460,-65.002
0.047,0.862,0.994,-30.884,-6.531,-56.396
0.008,0.779,0.950,-28.870,-7.446,-47.241
-0.056,0.728,0.912,-26.306,-9.705,-38.330
-0.142,0.647,0.878,-23.193,-10.498,-33.813
-0.186,0.594,0.857,-21.545,-11.353,-34.790
-0.188,0.576,0.832,-20.813,-11.780,-37.720
-0.172,0.567,0.816,-19.226,-12.085,-41.748
-0.157,0.530,0.811,-15.991,-12.146,-44.739
-0.122,0.483,0.798,-12.634,-12.390,-45.532
-0.087,0.433,0.787,-8.484,-10.620,-44.739
-0.054,0.371,0.786,-1.892,-7.935,-42.297
-0.019,0.294,0.802,6.531,-6.958,-37.537
-0.008,0.220,0.831,12.939,-7.080,-31.738
-0.007,0.177,0.848,16.174,-6.104,-25.391
-0.014,0.110,0.882,17.334,-5.371,-20.447
-0.033,0.053,0.915,16.235,-10.437,-18.372
-0.044,0.021,0.924,11.475,-5.981,-14.771
-0.039,-0.015,0.914,7.324,2.136,-13.245
-0.023,-0.043,0.917,4.333,5.798,-12.939
-0.007,-0.075,0.929,3.174,5.981,-12.451
-0.020,-0.124,0.943,4.089,4.395,-12.695
-0.027,-0.162,0.947,4.578,2.930,-13.428
-0.026,-0.181,0.947,3.723,3.601,-13.489
-0.026,-0.189,0.952,3.418,4.883,-12.634
-0.008,-0.197,0.947,2.747,5.371,-11.353
-0.009,-0.197,0.953,2.563,4.639,-9.277
-0.020,-0.197,0.960,2.197,3.662,-7.019
-0.030,-0.206,0.970,2.380,2.808,-5.554
-0.053,-0.212,0.983,3.174,1.648,-5.005
-0.074,-0.217,0.997,4.456,0.000,-5.615
-0.082,-0.223,1.010,5.310,-1.587,-7.996
-0.085,-0.225,1.023,5.432,-2.502,-10.803
-0.083,-0.225,1.034,4.150,-3.113,-13.489
-0.076,-0.221,1.038,1.526,-3.113,-15.137
-0.069,-0.206,1.036,-2.014,-2.502,-15.930
-0.056,-0.187,1.029,-5.493,-2.197,-15.930
-0.038,-0.159,1.011,-8.545,-2.258,-15.076
-0.022,-0.135,0.990,-9.338,-2.319,-13.550
-0.009,-0.111,0.969,-7.751,-2.808,-11.108
-0.005,-0.098,0.951,-5.127,-3.784,-7.751
-0.016,-0.095,0.941,-1.892,-4.456,-4.456
-0.039,-0.097,0.942,1.099,-5.188,-2.319
-0.054,-0.106,0.949,2.502,-5.188,-1.343
-0.064,-0.114,0.953,1.709,-4.395,-1.343
-0.064,-0.117,0.953,0.183,-3.113,-1.770
-0.062,-0.116,0.944,-1.526,-1.953,-2.258
-0.059,-0.115,0.938,-2.686,-0.732,-2.441
-0.060,-0.115,0.939,-2.686,-0.122,-2.075
-0.061,-0.117,0.939,-2.319,0.366,-1.587
-0.054,-0.119,0.938,-1.892,0.854,-1.160
-0.051,-0.119,0.937,-0.977,1.099,-0.549
-0.046,-0.116,0.940,0.305,1.038,0.061
-0.042,-0.120,0.943,1.892,1.099,1.099
-0.046,-0.125,0.949,3.540,1.099,2.136
-0.053,-0.127,0.949,3.906,0.977,2.686
-0.058,-0.136,0.958,3.967,0.671,2.747
-0.062,-0.143,0.958,2.686,1.160,2.625
-0.071,-0.145,0.958,0.671,2.075,2.441
-0.068,-0.147,0.953,-0.488,2.502,1.709
-0.066,-0.152,0.954,-0.610,2.502,1.160
-0.066,-0.148,0.954,-1.038,2.502,0.305
-0.061,-0.141,0.953,-1.831,2.808,-0.549
-0.057,-0.138,0.949,-2.136,2.930,-1.160
-0.052,-0.129,0.945,-2.197,2.625,-1.465
-0.051,-0.118,0.941,-1.465,2.319,-1.099
-0.054,-0.114,0.940,0.793,1.465,-0.366
-0.058,-0.116,0.950,3.357,0.122,-0.061
-0.057,-0.117,0.963,4.944,-0.793,0.244
-0.053,-0.115,0.971,5.005,-0.977,0.183
-0.051,-0.119,0.981,4.578,-1.038,0.244
-0.047,-0.122,0.987,2.991,-1.160,0.671
-0.052,-0.126,0.985,0.854,-0.793,1.587
-0.056,-0.125,0.975,-1.221,-0.122,1.831
-0.059,-0.124,0.964,-2.319,0.000,1.709
-0.058,-0.120,0.953,-2.014,0.000,1.465
-0.056,-0.122,0.946,-1.038,-0.183,1.099
-0.053,-0.125,0.943,0.244,0.000,1.099
-0.053,-0.132,0.946,1.831,-0.061,1.709
-0.051,-0.144,0.950,2.136,0.244,1.953
-0.050,-0.148,0.949,1.404,0.732,2.075
-0.047,-0.143,0.943,0.732,1.404,2.197
-0.046,-0.142,0.940,0.610,1.831,2.075
0.272,-1.480,1.219,-20.508,37.048,68.787
0.225,-1.664,1.270,-24.658,17.151,71.228
0.142,-1.790,1.256,-40.527,4.333,76.538
0.063,-1.895,1.168,-60.364,-0.427,80.383
0.007,-1.941,1.070,-75.073,-1.587,80.688
-0.668,-3.779,2.970,-136.047,15.320,87.463
-1.749,-2.054,-0.122,-368.225,93.750,60.974
-1.188,-1.532,0.340,-212.891,30.762,-10.254
0.288,-1.438,0.155,37.964,-49.622,-54.810
0.076,-1.724,0.955,201.599,-114.197,-51.331
0.011,-2.112,1.265,162.659,-105.957,-23.437
-0.217,-1.502,0.460,9.644,-29.602,10.803
-0.277,-1.154,0.471,-32.837,-9.521,0.183
-0.088,-1.025,0.448,-21.240,4.211,-15.198
-0.003,-0.930,0.555,6.531,14.832,-20.630
0.015,-0.883,0.690,27.100,21.179,-19.470
0.068,-0.799,0.816,32.959,25.696,-15.259
0.143,-0.681,0.919,36.133,26.978,-8.972
0.195,-0.630,1.010,40.039,24.170,-2.747
0.216,-0.551,1.081,37.720,20.874,3.235
0.217,-0.455,1.106,30.090,20.569,5.981
0.190,-0.352,1.129,20.996,22.400,4.089
0.177,-0.271,1.151,11.841,25.940,-1.953
0.139,-0.174,1.165,4.517,29.358,-12.451
0.112,-0.038,1.119,1.282,30.457,-29.175
0.104,0.081,1.090,7.996,26.367,-47.974
0.146,0.178,1.088,24.902,21.912,-63.965
0.178,0.246,1.120,46.875,20.142,-75.500
0.158,0.282,1.206,66.406,18.677,-83.069
0.161,0.306,1.278,77.271,19.226,-87.463
0.188,0.347,1.330,77.759,21.973,-90.820
0.194,0.426,1.362,71.289,23.621,-92.529
0.186,0.497,1.383,62.317,21.729,-92.468
0.186,0.541,1.384,51.392,18.311,-90.698
0.175,0.576,1.370,39.001,15.259,-87.463
0.137,0.624,1.335,27.222,12.756,-84.167
0.107,0.668,1.284,18.494,10.132,-82.275
0.087,0.687,1.233,14.648,5.066,-81.360
0.062,0.685,1.187,14.648,-0.916,-80.322
0.041,0.673,1.143,16.174,-6.531,-78.918
0.021,0.642,1.109,16.785,-11.902,-76.355
0.007,0.608,1.066,16.174,-16.907,-71.899
-0.004,0.589,1.007,14.221,-19.775,-67.261
-0.020,0.564,0.956,13.733,-21.729,-62.561
-0.025,0.512,0.932,14.404,-23.193,-57.617
-0.008,0.440,0.908,12.939,-23.437,-52.490
0.001,0.386,0.871,8.118,-22.888,-46.631
-0.000,0.339,0.835,3.052,-22.217,-39.185
-0.016,0.292,0.806,-0.732,-21.912,-31.799
-0.037,0.256,0.786,-3.296,-20.752,-25.574
-0.039,0.233,0.758,-4.517,-18.433,-21.179
-0.023,0.201,0.738,-4.517,-15.137,-16.724
-0.038,0.162,0.736,-2.380,-16.663,-13.916
-0.046,0.123,0.734,-0.916,-17.395,-8.484
-0.063,0.085,0.713,-1.099,-11.230,-2.869
-0.081,0.046,0.691,-0.061,-5.188,0.549
-0.092,-0.001,0.693,2.625,-2.747,3.113
-0.109,-0.067,0.716,6.409,-2.197,4.639
-0.122,-0.131,0.767,9.460,-1.526,4.211
-0.120,-0.174,0.812,11.169,0.610,3.052
-0.114,-0.216,0.861,10.681,4.395,1.221
-0.105,-0.211,0.891,9.277,8.423,-0.916
-0.085,-0.232,0.937,9.216,10.193,-3.418
-0.067,-0.245,0.977,8.423,10.498,-6.287
-0.044,-0.246,1.009,7.446,9.399,-9.094
-0.021,-0.251,1.043,7.080,6.775,-10.437
-0.008,-0.248,1.072,5.981,3.601,-10.803
-0.005,-0.242,1.087,5.066,-0.061,-9.888
-0.010,-0.243,1.100,4.089,-3.113,-7.874
-0.023,-0.243,1.103,2.258,-5.188,-5.066
-0.053,-0.237,1.095,-0.671,-5.737,-3.113
-0.080,-0.230,1.077,-3.235,-5.798,-2.136
-0.100,-0.219,1.052,-5.188,-5.859,-2.625
-0.114,-0.203,1.029,-6.348,-6.165,-4.211
-0.112,-0.184,1.005,-6.775,-6.775,-6.775
-0.093,-0.169,0.989,-6.653,-7.812,-9.521
-0.074,-0.154,0.975,-6.775,-8.728,-11.108
-0.068,-0.143,0.959,-6.287,-9.827,-11.597
-0.057,-0.131,0.948,-6.348,-11.536,-11.719
-0.049,-0.125,0.935,-6.348,-12.634,-10.803
-0.056,-0.112,0.927,-6.226,-12.756,-9.216
-0.062,-0.106,0.919,-6.287,-11.780,-7.446
-0.067,-0.100,0.914,-6.226,-10.071,-5.981
-0.064,-0.093,0.900,-5.127,-8.179,-4.517
-0.063,-0.087,0.891,-4.211,-6.348,-3.418
-0.059,-0.082,0.881,-2.686,-4.395,-2.136
-0.059,-0.082,0.879,-0.793,-2.869,-0.305
-0.061,-0.084,0.883,0.977,-1.953,1.404
-0.061,-0.093,0.890,2.808,-1.099,2.991
-0.066,-0.099,0.896,4.517,-0.610,4.578
-0.075,-0.111,0.905,5.371,-0.122,5.859
-0.084,-0.123,0.916,5.676,0.854,6.653
-0.085,-0.131,0.926,5.249,2.563,6.531
-0.083,-0.143,0.938,4.333,4.272,6.042
-0.082,-0.150,0.947,3.418,5.554,5.737
-0.082,-0.159,0.955,3.479,6.042,5.798
-0.085,-0.172,0.961,3.967,5.493,5.554
-0.091,-0.181,0.967,3.784,4.578,5.371
-0.097,-0.185,0.967,3.296,3.479,4.883
-0.105,-0.184,0.963,2.686,2.869,3.540
-0.104,-0.186,0.963,2.380,2.808,1.831
-0.100,-0.186,0.965,2.441,2.686,0.671
-0.098,-0.188,0.969,2.075,2.869,-0.549
-0.094,-0.189,0.972,1.465,2.686,-1.343
-0.090,-0.185,0.974,0.427,2.625,-1.953
-0.081,-0.176,0.966,-0.671,2.502,-2.441
-0.080,-0.162,0.957,-1.221,1.892,-2.441
-0.083,-0.152,0.955,-0.549,1.099,-2.136
-0.081,-0.142,0.956,0.061,0.366,-2.014
-0.077,-0.131,0.958,0.671,-0.427,-1.831
-0.072,-0.125,0.958,1.404,-1.038,-1.465
-0.069,-0.123,0.961,1.709,-1.221,-1.038
-0.070,-0.127,0.963,1.831,-1.099,-0.305
-0.079,-0.129,0.966,1.831,-1.160,0.732
-0.085,-0.132,0.965,1.404,-1.282,0.916
-0.090,-0.133,0.964,0.977,-1.221,0.549
-0.089,-0.133,0.964,0.427,-0.854,0.305
-0.083,-0.133,0.958,-0.549,-0.610,0.061
-0.079,-0.135,0.954,-1.526,-0.183,0.183
-0.286,-1.480,0.659,-22.583,4.578,81.177
-0.535,-3.194,2.917,-60.486,26.917,77.942
-1.350,-2.106,-1.312,-230.286,117.432,72.449
-1.276,-2.371,0.997,-49.683,14.648,-38.635
-0.476,-1.333,0.632,119.873,-85.876,-167.236
0.207,-1.411,0.884,217.224,-171.875,-212.708
-0.016,-1.120,1.044,194.702,-171.631,-171.021
0.217,-0.741,0.927,125.183,-144.287,-122.375
0.378,-0.532,0.734,58.228,-96.375,-65.918
0.184,-0.428,0.501,4.395,-39.551,-3.601
0.075,-0.352,0.444,-25.574,6.409,45.959
0.082,-0.368,0.462,-39.001,32.349,79.407
-0.016,-0.488,0.511,-50.842,41.565,103.210
-0.159,-0.510,0.512,-66.101,42.480,114.868
-0.228,-0.549,0.521,-75.928,40.283,113.953
-0.305,-0.529,0.561,-76.538,39.001,104.004
-0.321,-0.552,0.614,-67.017,37.170,89.294
-0.296,-0.563,0.382,-46.509,30.823,71.228
-0.376,-0.911,0.806,-11.475,15.564,53.650
-0.345,-0.945,0.848,-20.203,29.663,43.762
-0.245,-0.947,0.743,-33.081,38.513,33.142
-0.276,-1.013,0.819,-26.550,34.058,24.475
-0.280,-1.062,0.850,-26.123,35.278,18.188
-0.196,-1.042,0.841,-35.095,40.283,9.399
-0.134,-1.024,0.862,-43.335,44.678,1.343
-0.093,-0.999,0.873,-50.415,50.110,-5.188
-0.061,-0.984,0.891,-56.335,53.284,-12.329
-0.043,-0.960,0.913,-60.486,50.842,-20.508
-0.049,-0.925,0.912,-62.256,43.213,-31.006
-0.030,-0.851,0.900,-61.768,34.790,-43.701
-0.003,-0.758,0.868,-56.885,25.208,-57.068
0.058,-0.691,0.824,-46.814,13.794,-70.068
0.094,-0.620,0.788,-32.837,4.639,-80.933
0.118,-0.519,0.746,-16.296,3.113,-88.623
0.121,-0.433,0.755,2.686,6.653,-93.079
0.124,-0.383,0.807,20.874,12.329,-95.276
0.113,-0.304,0.882,33.081,17.090,-94.604
0.173,-0.243,0.931,39.246,19.714,-93.018
0.189,-0.181,0.990,36.865,19.958,-92.163
0.178,-0.073,1.015,26.367,19.348,-91.614
0.174,0.059,1.024,13.916,20.447,-92.407
0.183,0.220,1.015,6.042,22.644,-95.215
0.210,0.388,0.988,7.568,21.851,-98.816
0.233,0.471,0.972,19.043,14.648,-101.563
0.216,0.520,0.990,34.668,4.333,-101.501
0.150,0.553,1.021,49.500,-3.418,-100.891
0.089,0.591,1.060,61.279,-5.493,-102.600
0.054,0.668,1.111,69.946,-1.465,-106.201
0.035,0.755,1.158,77.332,5.493,-110.962
0.034,0.797,1.226,83.313,10.742,-116.333
0.068,0.822,1.302,85.266,13.550,-119.446
0.108,0.844,1.352,83.435,15.564,-118.347
0.163,0.840,1.384,78.491,16.541,-111.572
0.205,0.799,1.402,69.885,15.991,-98.877
0.210,0.758,1.395,57.617,14.465,-81.116
0.182,0.713,1.366,43.701,12.573,-61.829
0.139,0.646,1.305,29.968,11.475,-43.823
0.089,0.574,1.232,19.043,9.949,-28.503
0.043,0.483,1.160,11.597,6.653,-15.381
-0.026,0.402,1.096,7.019,3.906,-5.554
-0.088,0.316,1.038,5.432,2.930,0.549
-0.131,0.216,1.004,6.714,-0.183,2.319
-0.157,0.131,0.965,6.958,-2.380,2.747
-0.175,0.038,0.931,6.104,1.709,3.357
-0.188,-0.038,0.900,6.714,5.981,2.563
-0.166,-0.112,0.898,7.751,7.019,0.427
-0.153,-0.187,0.929,8.667,4.333,-1.526
-0.148,-0.242,0.946,6.836,0.549,-2.502
-0.120,-0.274,0.965,1.892,-0.854,-1.892
-0.100,-0.276,0.935,-1.892,-1.404,-0.183
-0.104,-0.286,0.922,-2.686,0.427,3.113
-0.107,-0.313,0.943,-0.122,-3.113,2.930
-0.111,-0.328,0.955,2.136,-10.071,1.709
-0.118,-0.349,0.970,4.578,-13.733,1.038
-0.116,-0.364,0.976,5.432,-14.526,0.610
-0.133,-0.366,0.993,3.235,-12.634,0.671
-0.140,-0.359,1.001,-0.610,-9.277,0.244
-0.136,-0.333,0.991,-5.920,-5.249,-0.610
-0.137,-0.300,0.968,-11.230,-0.916,-1.160
-0.123,-0.268,0.929,-15.015,1.892,-1.221
-0.116,-0.228,0.900,-15.625,2.014,-1.526
-0.110,-0.203,0.888,-11.230,-0.549,-0.977
-0.113,-0.199,0.894,-3.784,-4.089,-0.732
-0.118,-0.206,0.910,2.441,-7.141,-1.465
-0.112,-0.215,0.931,7.263,-8.301,-2.014
-0.117,-0.227,0.956,9.216,-7.629,-2.563
-0.120,-0.228,0.969,7.507,-5.676,-2.869
-0.119,-0.219,0.974,4.333,-3.479,-2.869
-0.115,-0.207,0.968,0.916,-2.197,-2.380
-0.108,-0.193,0.952,-1.953,-1.221,-1.404
-0.106,-0.186,0.935,-3.601,-0.793,-0.122
-0.101,-0.181,0.921,-3.479,-0.549,1.404
-0.093,-0.182,0.911,-2.808,-0.122,2.869
-0.096,-0.186,0.901,-1.587,0.061,4.578
-0.108,-0.191,0.899,0.366,-0.122,5.737
-0.115,-0.203,0.905,2.258,0.122,5.676
-0.113,-0.215,0.911,3.357,0.610,4.456
-0.107,-0.211,0.911,3.601,0.916,3.601
-0.109,-0.207,0.910,4.089,1.099,3.235
-0.125,-0.209,0.914,4.822,1.709,2.747
-0.129,-0.212,0.925,5.554,2.197,2.014
-0.122,-0.213,0.932,4.761,2.930,0.854
-0.109,-0.219,0.940,3.113,4.028,-0.061
-0.094,-0.219,0.942,1.160,4.822,0.000
-0.084,-0.216,0.941,-0.549,4.456,0.671
-0.082,-0.219,0.940,-0.977,2.869,1.587
-0.089,-0.223,0.940,-0.977,1.099,2.991
-0.102,-0.221,0.934,-0.916,0.183,4.456
-0.126,-0.218,0.932,-0.183,0.427,5.310
-0.138,-0.224,0.933,0.793,0.671,4.944
-0.139,-0.228,0.937,1.343,0.732,3.296
-0.139,-0.231,0.940,1.648,0.854,1.953
-0.136,-0.235,0.946,1.892,1.221,0.732
-0.126,-0.238,0.947,1.038,1.343,-0.488
-0.115,-0.234,0.943,-0.061,1.465,-0.977
-0.108,-0.230,0.941,-0.488,1.099,-0.916
-0.103,-0.231,0.945,-0.305,0.610,-0.610
-0.106,-0.234,0.953,-0.122,0.061,0.000
-0.113,-0.232,0.956,-0.488,-0.488,0.671
-0.341,-1.395,0.887,3.784,-33.386,70.862
-0.344,-1.397,0.883,4.456,-38.086,53.772
-0.304,-1.393,0.837,-2.747,-37.903,40.466
-0.230,-1.388,0.789,-12.390,-32.715,31.677
-0.173,-1.369,0.746,-19.836,-24.719,29.236
-0.172,-1.370,0.707,-25.208,-16.296,30.945
1.869,-4.000,1.580,-29.846,-8.972,29.785
-1.741,-1.753,0.884,-120.972,15.198,25.696
-0.542,-1.199,-0.079,-17.212,-4.944,-54.321
-0.058,-1.434,0.558,114.807,-57.251,-33.630
0.021,-1.648,0.628,26.428,-34.973,-6.348
-0.302,-1.330,0.338,-35.095,8.911,18.738
-0.282,-1.317,0.405,-49.500,33.508,15.381
-0.201,-1.356,0.498,-51.086,51.208,5.615
-0.150,-1.344,0.566,-48.340,61.523,0.488
-0.123,-1.310,0.654,-43.762,64.514,-1.465
-0.120,-1.294,0.753,-35.583,57.495,-4.150
-0.084,-1.263,0.839,-26.062,46.448,-7.935
0.003,-1.184,0.905,-18.372,36.316,-12.878
0.080,-1.085,0.972,-11.902,26.611,-16.296
0.099,-0.947,1.040,-7.629,19.226,-16.602
0.085,-0.792,1.102,-6.165,18.616,-16.235
0.056,-0.672,1.160,-6.714,23.254,-19.104
0.042,-0.534,1.213,-8.240,30.945,-28.198
0.052,-0.389,1.218,-9.338,37.231,-42.969
0.098,-0.264,1.200,-5.188,37.109,-59.326
0.142,-0.152,1.206,5.127,30.518,-73.303
0.151,-0.067,1.213,18.738,21.423,-83.923
0.117,-0.000,1.240,28.809,13.733,-93.445
0.083,0.075,1.269,33.264,9.888,-103.027
0.088,0.176,1.266,32.104,9.216,-113.159
0.101,0.281,1.259,28.198,10.376,-120.422
0.105,0.380,1.254,24.353,11.108,-125.427
0.113,0.505,1.240,21.362,11.780,-129.944
0.126,0.661,1.197,22.888,10.986,-134.338
0.129,0.810,1.157,31.372,5.432,-136.230
0.117,0.925,1.123,42.664,-3.052,-135.132
0.090,1.029,1.088,52.795,-11.902,-131.165
0.033,1.085,1.068,59.021,-19.653,-125.366
0.009,1.111,1.063,60.242,-23.071,-118.042
0.014,1.131,1.031,55.542,-21.118,-108.948
0.025,1.141,0.994,47.302,-18.188,-96.863
0.028,1.121,0.955,37.415,-17.639,-82.031
0.021,1.069,0.914,26.611,-18.555,-65.613
0.001,1.001,0.870,14.587,-18.799,-48.950
-0.030,0.894,0.824,2.502,-17.944,-32.898
-0.073,0.740,0.795,-8.118,-13.916,-17.517
-0.124,0.573,0.757,-17.395,-7.507,-4.089
-0.172,0.422,0.736,-23.193,-2.625,5.249
-0.167,0.243,0.728,-25.146,-0.244,12.939
-0.182,0.104,0.739,-23.071,1.099,20.325
-0.214,-0.059,0.770,-18.127,2.686,25.085
-0.251,-0.192,0.807,-15.747,4.944,25.574
-0.283,-0.275,0.838,-15.869,8.301,22.888
-0.268,-0.341,0.868,-16.357,11.353,18.127
-0.241,-0.424,0.884,-15.137,14.404,14.282
-0.206,-0.492,0.934,-13.062,17.395,13.062
-0.192,-0.562,0.977,-6.958,9.460,9.827
-0.198,-0.617,1.017,-2.258,4.395,7.751
-0.203,-0.647,1.027,-2.075,10.132,7.629
-0.186,-0.642,1.009,-4.456,17.700,5.859
-0.180,-0.613,1.004,-4.272,18.127,1.770
-0.182,-0.600,1.019,-1.526,9.705,-4.028
-0.193,-0.580,1.028,-0.427,-0.183,-10.925
-0.174,-0.533,1.013,-0.732,-2.747,-16.357
-0.157,-0.479,0.986,1.038,-2.441,-19.287
-0.156,-0.431,0.977,4.761,-3.540,-20.874
-0.163,-0.392,0.973,8.911,-6.409,-21.057
-0.173,-0.348,0.966,12.634,-8.972,-20.508
-0.189,-0.297,0.962,14.343,-9.766,-20.142
-0.198,-0.252,0.958,14.526,-8.667,-19.531
-0.178,-0.215,0.951,13.428,-5.920,-18.311
-0.160,-0.180,0.935,11.047,-2.747,-16.663
-0.152,-0.151,0.920,9.216,0.061,-14.160
-0.151,-0.130,0.911,9.155,0.854,-12.085
-0.156,-0.113,0.908,10.071,-0.427,-10.681
-0.163,-0.099,0.918,10.864,-2.380,-10.132
-0.164,-0.084,0.927,11.292,-4.333,-9.705
-0.165,-0.074,0.936,9.827,-5.493,-9.460
-0.168,-0.073,0.945,7.507,-6.287,-8.972
-0.167,-0.073,0.949,4.395,-5.981,-8.118
-0.168,-0.068,0.941,0.366,-4.822,-6.958
-0.165,-0.058,0.920,-2.930,-3.052,-5.371
-0.169,-0.045,0.894,-3.723,-2.258,-3.662
-0.169,-0.045,0.878,-1.953,-1.831,-2.441
-0.165,-0.052,0.868,0.183,-1.343,-1.221
-0.166,-0.061,0.870,2.380,-1.160,-0.122
-0.158,-0.085,0.874,4.211,-0.488,1.099
-0.164,-0.111,0.884,5.676,0.061,2.930
-0.179,-0.142,0.898,6.348,0.061,5.554
-0.204,-0.174,0.918,4.822,0.732,7.446
-0.221,-0.200,0.929,1.526,2.136,8.484
-0.227,-0.214,0.928,-2.563,4.211,7.935
-0.226,-0.220,0.920,-6.226,6.409,6.409
-0.219,-0.223,0.911,-7.202,7.446,4.578
-0.213,-0.226,0.908,-5.615,7.446,3.418
-0.209,-0.235,0.909,-2.930,6.714,2.319
-0.203,-0.245,0.921,0.000,5.737,1.770
-0.195,-0.254,0.934,2.502,5.005,1.160
-0.184,-0.262,0.940,4.395,3.723,0.854
-0.187,-0.262,0.947,5.859,1.404,0.977
-0.194,-0.261,0.948,6.958,-0.244,1.587
-0.203,-0.261,0.956,7.751,-1.099,1.648
-0.201,-0.262,0.962,7.507,-1.343,1.160
-0.198,-0.260,0.969,6.165,-0.732,0.366
-0.187,-0.254,0.969,3.418,0.488,-0.427
-0.181,-0.246,0.962,1.099,1.038,-0.671
-0.178,-0.240,0.952,-0.061,0.977,-0.427
-0.180,-0.237,0.940,-0.122,0.427,-0.061
-0.185,-0.237,0.930,0.732,-0.732,0.305
-0.198,-0.236,0.927,2.075,-2.075,0.244
-0.203,-0.234,0.929,2.991,-2.625,-0.427
-0.199,-0.228,0.935,3.235,-2.686,-1.465
-0.185,-0.220,0.934,3.174,-2.380,-2.319
-0.176,-0.213,0.934,2.563,-2.075,-2.808
-0.171,-0.207,0.930,1.709,-2.014,-2.686
-0.171,-0.202,0.926,0.916,-1.831,-2.441
-0.170,-0.199,0.922,0.488,-1.465,-2.075
-0.171,-0.200,0.920,0.916,-1.587,-1.831
-0.762,-0.718,-0.709,-164.062,83.557,47.363
-1.136,-1.085,0.120,-70.129,16.479,-33.875
-0.775,-1.111,0.269,120.667,-66.528,-89.905
-0.529,-1.416,0.951,232.605,-108.459,-122.498
-0.325,-1.215,1.105,200.073,-97.168,-117.249
-0.117,-0.952,1.115,93.384,-67.566,-101.563
0.025,-0.761,0.894,-4.333,-29.480,-68.604
0.069,-0.612,0.866,-74.646,6.653,-30.884
0.093,-0.391,0.637,-121.033,40.405,6.775
0.116,-0.300,0.474,-129.822,62.439,44.678
0.051,-0.420,0.475,-112.305,67.200,76.843
-0.134,-0.534,0.544,-95.764,61.829,90.027
-0.311,-0.524,0.539,-80.811,52.063,82.703
-0.365,-0.571,0.668,-58.594,39.673,57.251
-0.316,-0.549,0.593,-38.940,34.302,30.884
-0.328,-0.558,0.686,-9.583,18.738,7.568
-0.315,-0.623,0.805,20.203,-0.610,-12.512
-0.263,-0.692,0.927,31.128,-10.437,-24.475
-0.238,-0.730,1.009,20.630,-6.104,-26.917
-0.167,-0.761,1.031,-2.258,6.958,-24.597
-0.086,-0.735,0.994,-26.489,21.729,-18.066
-0.069,-0.685,0.969,-41.565,32.654,-10.010
-0.055,-0.637,0.950,-46.204,38.635,-3.845
-0.035,-0.564,0.921,-42.969,38.269,0.061
-0.036,-0.511,0.909,-32.227,30.151,1.587
-0.042,-0.512,0.924,-16.479,15.503,-2.563
-0.062,-0.514,0.945,-2.197,1.099,-7.935
-0.087,-0.524,0.976,6.104,-5.554,-13.062
-0.114,-0.511,1.004,6.653,-3.357,-19.653
-0.130,-0.482,1.029,1.892,3.845,-26.367
-0.140,-0.432,1.052,-5.188,13.245,-32.654
-0.112,-0.384,1.055,-15.259,21.790,-39.551
-0.056,-0.330,1.043,-26.672,29.480,-44.739
-0.014,-0.240,1.009,-35.400,34.668,-46.692
0.030,-0.161,0.976,-37.598,34.485,-46.509
0.074,-0.085,0.927,-33.142,27.832,-44.800
0.075,-0.035,0.920,-20.996,16.174,-41.931
0.066,-0.022,0.933,-6.775,5.676,-38.696
0.036,-0.021,0.942,5.127,-1.038,-33.752
-0.005,-0.016,0.985,12.878,-2.563,-29.785
-0.065,-0.028,1.016,15.442,-1.343,-29.846
-0.079,-0.016,1.024,13.245,1.953,-33.630
-0.119,-0.000,1.045,10.681,5.188,-38.940
-0.108,-0.019,1.053,7.751,6.653,-46.875
-0.051,-0.041,1.054,3.723,7.507,-53.833
-0.009,-0.028,1.052,0.366,8.240,-57.739
0.045,-0.005,1.050,-0.977,6.836,-57.800
0.085,0.008,1.051,-2.075,3.235,-53.406
0.063,0.054,1.048,-2.197,-0.854,-46.082
0.022,0.103,1.039,0.061,-3.845,-39.856
0.005,0.146,1.023,2.502,-3.906,-36.072
-0.025,0.214,0.991,4.822,-3.601,-34.851
-0.065,0.276,0.962,8.362,-3.479,-35.583
-0.098,0.338,0.932,13.489,-3.235,-38.879
-0.113,0.366,0.912,22.217,-4.028,-44.312
-0.082,0.360,0.900,31.616,-5.127,-50.781
-0.067,0.363,0.903,40.222,-6.226,-54.565
-0.070,0.367,0.910,46.753,-8.545,-54.688
-0.073,0.355,0.931,50.171,-11.597,-52.307
-0.072,0.317,0.953,49.255,-13.306,-48.340
-0.052,0.259,0.972,44.861,-11.536,-42.297
-0.049,0.226,0.955,37.659,-7.690,-34.607
-0.086,0.185,0.955,30.396,-5.432,-27.283
-0.124,0.143,0.922,23.254,-4.578,-21.057
-0.187,0.113,0.919,17.090,-3.418,-18.127
-0.233,0.091,0.906,12.634,-1.770,-20.569
-0.245,0.071,0.897,11.292,0.610,-24.963
-0.235,0.067,0.897,12.817,2.319,-29.724
-0.212,0.043,0.904,16.907,1.892,-33.447
-0.192,0.024,0.922,20.264,1.404,-34.241
-0.174,0.021,0.937,22.034,1.892,-32.837
-0.164,0.027,0.961,22.583,2.869,-30.029
-0.161,0.026,0.978,23.071,1.709,-27.100
-0.151,0.008,0.997,22.278,-0.305,-24.536
-0.153,-0.004,1.004,20.386,-1.465,-20.935
-0.162,-0.003,1.006,17.517,-2.075,-17.456
-0.165,-0.003,1.007,14.160,-3.235,-14.832
-0.171,-0.007,1.008,10.986,-4.883,-12.939
-0.167,-0.018,0.999,7.874,-5.371,-11.597
-0.167,-0.038,0.988,4.700,-4.272,-10.254
-0.173,-0.058,0.975,2.075,-2.930,-9.033
-0.184,-0.071,0.964,0.244,-2.441,-8.118
-0.185,-0.094,0.947,-1.221,-2.319,-8.179
-0.170,-0.115,0.933,-2.441,-1.892,-7.812
-0.168,-0.129,0.921,-2.808,-1.465,-5.798
-0.162,-0.132,0.905,-2.014,-1.221,-4.211
-0.160,-0.144,0.895,0.000,-1.770,-2.930
-0.170,-0.157,0.895,2.686,-3.357,-1.770
-0.171,-0.168,0.897,5.676,-4.333,-0.793
-0.178,-0.182,0.901,8.728,-4.517,-0.183
-0.190,-0.198,0.912,11.841,-4.578,0.061
-0.196,-0.209,0.933,13.733,-4.333,-1.099
-0.198,-0.226,0.958,14.465,-3.723,-2.747
-0.182,-0.226,0.977,13.123,-2.991,-4.089
-0.186,-0.244,0.977,9.583,-2.930,-4.395
-0.173,-0.220,0.968,5.066,-2.197,-5.310
-0.168,-0.213,0.956,2.441,-0.916,-5.371
-0.156,-0.212,0.947,0.977,-0.122,-4.395
-0.156,-0.209,0.937,-0.244,0.305,-2.991
-0.157,-0.206,0.927,-0.488,0.305,-1.709
-0.160,-0.207,0.918,-0.305,0.488,-0.183
-0.169,-0.205,0.908,0.671,0.244,0.732
-0.179,-0.207,0.900,2.869,0.000,1.404
-0.185,-0.211,0.898,5.127,0.183,0.977
-0.191,-0.216,0.896,6.653,0.549,-0.122
-0.197,-0.221,0.905,7.751,1.221,-1.465
-0.192,-0.222,0.911,7.751,2.136,-2.991
-0.179,-0.220,0.917,7.141,2.869,-4.272
-0.164,-0.213,0.913,6.653,3.113,-4.883
-0.165,-0.214,0.913,6.042,2.686,-4.578
-0.174,-0.214,0.918,5.920,1.953,-4.211
-0.173,-0.216,0.914,5.432,1.648,-4.089
-0.168,-0.208,0.909,4.822,1.465,-4.089
-0.172,-0.205,0.911,4.700,0.610,-3.967
-0.171,-0.212,0.925,5.432,-0.305,-3.296
-0.177,-0.216,0.930,4.761,0.366,-2.686
-0.189,-0.213,0.930,3.784,1.343,-2.686
-0.195,-0.212,0.931,3.174,1.587,-3.235
-0.195,-0.213,0.934,2.869,1.465,-4.150
0.228,1.388,1.135,42.664,-33.142,-17.517
0.262,1.445,1.178,60.547,-50.964,1.160
0.246,1.416,1.284,73.425,-64.697,25.085
0.235,1.310,1.436,75.500,-71.960,49.316
0.218,1.228,1.559,57.190,-68.970,71.960
0.222,1.148,1.625,18.188,-56.824,89.966
0.300,1.093,1.571,-30.579,-41.443,102.356
0.382,1.058,1.475,-75.317,-28.381,113.281
0.492,1.008,1.337,-107.239,-20.325,125.000
0.607,0.671,1.042,-121.033,-8.972,161.987
0.510,0.317,1.023,-104.370,-2.136,179.443
0.529,-0.146,1.010,-45.715,7.751,188.599
0.565,-1.154,1.114,-2.441,-3.662,185.364
0.457,-1.661,1.165,14.709,-23.560,184.631
0.332,-2.041,1.142,10.132,-38.757,182.495
0.178,-2.235,1.057,-11.108,-46.021,173.889
0.024,-2.281,0.886,-38.391,-46.265,159.363
-0.072,-2.252,0.701,-56.641,-41.809,141.296
-0.119,-2.145,0.578,-63.782,-34.973,122.498
-0.130,-2.022,0.504,-59.753,-26.245,104.309
-1.186,-3.856,3.637,-104.004,-6.958,82.642
-3.841,-3.557,-1.588,-366.516,99.487,-12.878
-0.282,-1.906,-0.908,-54.932,5.676,-163.086
0.249,-1.711,0.513,223.633,-141.418,-212.769
0.096,-1.670,0.463,235.474,-125.549,-132.080
0.357,-1.426,0.510,160.889,-119.324,-54.321
0.143,-1.292,0.737,71.594,-95.215,11.841
-0.073,-0.994,0.245,-67.627,-2.930,50.842
-0.027,-0.719,0.053,-129.578,58.594,66.467
0.077,-0.662,0.012,-119.995,73.364,75.806
-0.026,-0.703,0.119,-91.309,69.580,88.318
-0.158,-0.723,0.243,-62.439,60.425,92.957
-0.234,-0.755,0.433,-30.579,46.997,83.313
-0.281,-0.855,0.645,3.540,34.302,62.744
-0.303,-0.906,0.826,25.330,29.846,37.292
-0.311,-0.920,0.945,31.433,34.119,11.902
-0.289,-0.893,1.034,26.367,44.250,-10.254
-0.201,-0.838,1.102,15.015,55.359,-27.832
-0.123,-0.785,1.169,1.343,63.110,-40.161
-0.055,-0.728,1.213,-13.184,66.956,-48.157
0.045,-0.646,1.220,-26.306,68.054,-52.429
0.132,-0.559,1.216,-33.936,62.195,-52.673
0.186,-0.502,1.195,-35.156,55.786,-47.607
0.245,-0.448,1.175,-31.494,48.218,-40.344
0.218,-0.423,1.190,-25.085,37.842,-31.067
0.178,-0.418,1.214,-17.822,31.555,-20.691
0.112,-0.412,1.232,-12.024,27.710,-16.235
0.031,-0.418,1.282,-7.019,23.315,-19.592
-0.003,-0.414,1.314,-6.165,19.165,-31.128
-0.007,-0.361,1.317,-9.399,16.052,-46.631
0.022,-0.261,1.301,-13.489,13.062,-63.354
-0.011,-0.185,1.294,-18.127,10.193,-77.637
0.034,-0.060,1.238,-23.743,13.489,-91.553
0.076,0.058,1.197,-24.170,16.724,-103.210
0.124,0.209,1.142,-20.752,17.883,-112.793
0.186,0.328,1.096,-10.254,13.489,-118.896
0.193,0.406,1.087,6.348,3.662,-120.239
0.186,0.471,1.089,24.414,-4.456,-118.652
0.175,0.523,1.109,39.551,-10.315,-116.089
0.140,0.572,1.134,49.377,-15.076,-111.938
0.099,0.623,1.137,51.697,-18.005,-107.605
0.068,0.668,1.118,49.133,-19.348,-103.516
0.045,0.714,1.087,45.105,-19.897,-99.670
0.028,0.751,1.045,41.016,-20.569,-95.520
0.005,0.750,1.005,37.537,-21.484,-90.088
-0.031,0.751,0.959,34.973,-21.790,-82.458
-0.078,0.739,0.913,32.715,-22.034,-75.134
-0.103,0.708,0.875,31.189,-22.705,-68.848
-0.119,0.677,0.834,29.358,-21.362,-61.768
-0.129,0.635,0.798,27.527,-16.724,-53.955
-0.135,0.594,0.771,25.391,-11.536,-45.898
-0.143,0.550,0.758,24.597,-9.216,-36.865
-0.179,0.490,0.761,22.583,-8.423,-27.893
-0.219,0.420,0.764,20.447,-8.850,-20.935
-0.226,0.351,0.756,15.991,-5.920,-14.587
-0.232,0.278,0.752,11.536,-0.488,-7.996
-0.234,0.209,0.742,8.606,4.028,-2.136
-0.270,0.137,0.748,8.606,5.005,4.150
-0.312,0.053,0.763,10.315,3.418,6.958
-0.356,-0.021,0.784,12.512,0.793,5.615
-0.365,-0.103,0.808,14.893,-0.366,1.221
-0.349,-0.162,0.834,16.785,-1.099,-4.272
-0.334,-0.215,0.882,17.700,-2.014,-9.583
-0.308,-0.271,0.932,17.700,-3.174,-13.306
-0.270,-0.302,0.967,14.587,-3.967,-15.564
-0.238,-0.335,0.999,9.094,-4.822,-15.259
-0.203,-0.341,1.018,2.808,-5.554,-13.062
-0.191,-0.331,1.026,-3.052,-5.859,-9.094
-0.190,-0.317,1.022,-8.484,-6.226,-4.944
-0.199,-0.298,1.007,-12.207,-6.653,-1.160
-0.214,-0.290,1.003,-13.794,-6.470,1.221
-0.219,-0.267,0.986,-13.916,-5.188,1.892
-0.213,-0.251,0.973,-12.085,-4.456,0.916
-0.196,-0.251,0.965,-8.789,-4.333,-0.122
-0.180,-0.260,0.955,-5.676,-3.906,-0.122
-0.172,-0.267,0.947,-2.197,-4.272,1.160
-0.172,-0.281,0.948,0.061,-6.165,2.747
-0.178,-0.293,0.944,1.038,-8.362,4.211
-0.188,-0.289,0.924,0.244,-7.996,5.432
-0.198,-0.283,0.910,-1.343,-6.165,6.714
-0.204,-0.266,0.895,-2.441,-4.578,7.019
-0.207,-0.251,0.883,-1.770,-4.639,7.080
-0.208,-0.241,0.876,-0.427,-4.822,6.592
-0.211,-0.242,0.882,1.953,-4.272,5.798
-0.210,-0.250,0.892,4.395,-4.272,4.700
-0.215,-0.261,0.901,6.653,-3.540,3.540
-0.219,-0.262,0.910,7.507,-2.625,1.526
-0.210,-0.261,0.912,7.935,-2.563,0.305
-0.207,-0.253,0.919,7.263,-2.686,-0.977
-0.205,-0.243,0.922,5.615,-2.502,-1.892
-0.206,-0.229,0.922,2.563,-1.892,-2.502
-0.216,-0.219,0.921,-0.732,-0.854,-3.113
-0.219,-0.183,0.898,-3.601,0.305,-4.395
-0.200,-0.183,0.883,-2.441,0.793,-5.615
-0.198,-0.162,0.864,-1.221,0.549,-6.287
-0.193,-0.156,0.855,1.465,-0.244,-6.287
-0.194,-0.149,0.844,5.005,-0.916,-5.554
-0.203,-0.158,0.846,8.972,-1.404,-4.639
-0.209,-0.169,0.850,11.902,-1.160,-4.211
-0.280,-1.673,0.682,-52.979,-22.034,108.826
-0.255,-1.709,0.683,-49.377,-23.987,96.252
-0.182,-1.700,0.690,-48.035,-26.062,82.031
-0.107,-1.630,0.683,-47.180,-25.208,68.787
0.240,-3.829,1.007,-44.922,-23.010,56.702
-1.770,-2.475,0.128,-83.069,-4.272,-27.710
-0.392,-0.944,-1.057,-66.589,46.814,-105.896
-0.116,-1.076,0.012,127.869,-76.843,-99.487
-0.080,-1.560,1.020,180.298,-107.056,-64.575
0.041,-1.517,0.716,87.036,-80.688,-23.682
0.181,-1.025,0.555,-26.550,-46.570,18.555
-0.184,-0.817,0.250,-98.328,-8.240,59.753
-0.319,-0.770,0.143,-112.244,21.179,74.585
-0.370,-0.769,0.158,-98.877,41.138,71.777
-0.338,-0.770,0.138,-87.158,56.030,64.941
-0.300,-0.773,0.173,-69.031,54.993,55.542
-0.339,-0.850,0.312,-31.494,40.344,45.166
-0.326,-0.987,0.481,6.836,26.489,33.081
-0.294,-1.088,0.622,26.733,20.020,21.973
-0.285,-1.117,0.729,30.823,18.677,15.686
-0.287,-1.103,0.812,24.841,21.118,12.756
-0.256,-1.076,0.863,11.963,24.658,10.986
-0.148,-0.948,0.895,-31.860,38.574,7.141
-0.098,-0.825,0.854,-53.406,48.218,3.784
-0.074,-0.713,0.813,-62.134,55.847,0.549
-0.073,-0.624,0.783,-57.739,61.462,-4.028
-0.097,-0.558,0.765,-43.640,62.378,-13.367
-0.114,-0.509,0.777,-21.667,57.983,-27.405
-0.110,-0.450,0.797,3.540,50.781,-44.067
-0.120,-0.415,0.844,30.334,39.551,-62.927
-0.103,-0.399,0.924,52.917,28.564,-82.336
-0.087,-0.381,1.002,64.819,22.461,-97.656
-0.078,-0.335,1.099,64.087,24.414,-107.788
-0.048,-0.285,1.177,51.941,34.363,-117.004
-0.000,-0.247,1.229,32.288,45.959,-123.047
0.069,-0.161,1.222,9.644,58.044,-125.122
0.092,-0.028,1.191,-5.615,64.819,-123.718
0.135,0.098,1.145,-11.475,62.805,-121.948
0.142,0.193,1.120,-8.301,54.565,-119.202
0.129,0.264,1.104,1.465,45.532,-115.173
0.073,0.316,1.081,13.123,39.856,-111.633
0.038,0.340,1.036,24.353,35.583,-109.924
-0.003,0.329,1.019,37.720,30.212,-107.971
-0.062,0.308,1.052,48.767,25.085,-106.323
-0.096,0.328,1.090,53.345,22.400,-107.239
-0.124,0.369,1.141,51.636,24.231,-109.802
-0.114,0.396,1.180,45.166,29.968,-111.816
-0.086,0.429,1.187,35.522,36.255,-111.267
-0.072,0.471,1.186,26.733,38.696,-107.422
-0.057,0.509,1.167,20.264,35.767,-102.478
-0.043,0.536,1.148,18.005,28.687,-96.375
-0.049,0.570,1.130,18.677,20.386,-88.440
-0.083,0.596,1.119,21.240,12.573,-79.956
-0.113,0.585,1.109,22.705,6.592,-71.655
-0.131,0.541,1.093,21.423,5.798,-61.096
-0.156,0.495,1.055,17.334,8.606,-49.011
-0.201,0.426,1.018,13.916,9.155,-36.926
-0.241,0.355,0.980,11.292,7.080,-26.367
-0.283,0.294,0.935,8.118,4.822,-17.456
-0.332,0.243,0.898,4.639,4.700,-10.803
-0.374,0.195,0.858,1.831,5.798,-6.104
-0.399,0.154,0.821,-0.488,6.897,-4.761
-0.394,0.106,0.802,-0.671,7.507,-5.371
-0.371,0.045,0.807,1.404,7.263,-6.470
-0.348,-0.022,0.832,5.249,5.981,-7.019
-0.332,-0.099,0.887,9.583,3.296,-7.446
-0.309,-0.176,0.942,13.306,1.038,-6.592
-0.288,-0.237,0.989,14.099,0.610,-5.432
-0.278,-0.281,1.021,12.512,-0.061,-3.723
-0.275,-0.312,1.042,9.460,-1.282,-2.075
-0.282,-0.352,1.051,5.432,-2.319,-0.610
-0.285,-0.374,1.052,-0.610,-1.892,-0.183
-0.277,-0.376,1.034,-6.958,-0.793,0.366
-0.273,-0.373,1.005,-12.268,0.671,0.061
-0.273,-0.361,0.971,-15.198,1.282,-0.854
-0.266,-0.345,0.940,-16.113,0.977,-2.258
-0.254,-0.319,0.907,-14.832,0.061,-3.540
-0.238,-0.291,0.874,-11.902,-1.099,-4.822
-0.231,-0.263,0.856,-6.653,-2.747,-4.944
-0.225,-0.245,0.848,-0.854,-3.906,-5.371
-0.221,-0.233,0.852,4.089,-4.456,-6.042
-0.215,-0.226,0.863,8.301,-4.639,-6.348
-0.216,-0.223,0.879,10.742,-4.456,-6.653
-0.218,-0.220,0.891,10.864,-3.357,-7.202
-0.213,-0.216,0.902,10.010,-2.319,-7.202
-0.199,-0.210,0.905,8.057,-1.770,-7.263
-0.192,-0.204,0.912,5.188,-1.526,-6.592
-0.188,-0.200,0.911,2.502,-0.793,-4.822
-0.176,-0.208,0.908,0.427,-0.549,-2.747
-0.208,-0.205,0.906,-1.099,-0.427,0.183
-0.213,-0.216,0.900,-0.854,-0.305,3.174
-0.236,-0.216,0.898,-0.122,-0.732,5.066
-0.260,-0.222,0.896,0.977,-0.977,5.737
-0.273,-0.220,0.890,1.648,-0.977,5.371
-0.281,-0.215,0.880,2.014,-0.427,3.845
-0.286,-0.210,0.877,2.319,0.793,1.953
-0.282,-0.212,0.878,3.296,2.319,0.305
-0.272,-0.210,0.878,4.089,3.601,-1.404
-0.265,-0.212,0.882,4.822,4.211,-2.502
-0.261,-0.213,0.892,5.554,4.700,-2.747
-0.243,-0.209,0.899,5.615,4.761,-2.686
-0.243,-0.213,0.899,5.493,4.089,-2.441
-0.239,-0.206,0.904,4.700,3.540,-1.526
-0.233,-0.202,0.905,4.272,2.319,-0.793
-0.237,-0.206,0.906,4.028,1.770,-0.122
-0.237,-0.206,0.906,3.052,2.441,0.854
-0.236,-0.209,0.906,2.380,2.869,1.343
-0.238,-0.219,0.912,2.380,2.563,1.465
-0.241,-0.228,0.917,3.113,2.014,2.502
-0.247,-0.238,0.921,3.601,1.343,3.052
-0.257,-0.245,0.930,3.418,0.854,3.723
-0.272,-0.259,0.933,3.906,0.793,3.479
-0.269,-0.265,0.931,2.930,1.160,2.197
-0.263,-0.268,0.935,1.221,1.160,0.732
-0.250,-0.268,0.937,0.061,1.099,0.000
-0.238,-0.265,0.936,-1.648,1.221,-0.061
-0.238,-0.260,0.936,-2.502,0.916,0.488
-0.240,-0.257,0.935,-2.991,0.305,0.793
-0.239,-0.253,0.934,-3.357,-0.366,0.549
-1.167,-1.472,-4.000,617.615,112.122,-90.149
0.254,-2.292,-1.664,315.308,229.370,-21.912
-0.071,-1.662,-0.578,52.856,131.531,-32.593
-0.211,-1.210,-0.331,16.052,73.853,-69.763
-0.262,-0.856,-0.357,18.188,25.940,-66.345
-0.011,-0.920,-0.612,18.738,0.854,-48.584
0.163,-0.998,-0.713,-14.587,-21.545,-31.128
0.111,-1.145,-0.976,-69.336,-50.659,-17.944
0.080,-1.369,-0.931,-155.029,-71.045,-6.165
0.044,-1.281,-0.923,-238.220,-72.815,4.395
0.117,-1.155,-0.909,-296.143,-66.650,9.827
0.118,-0.966,-0.855,-323.975,-65.308,12.085
0.134,-0.894,-0.795,-315.125,-61.218,8.606
0.109,-0.790,-0.722,-277.039,-57.922,2.136
0.076,-0.746,-0.672,-227.539,-58.960,-4.211
0.033,-0.715,-0.587,-176.147,-59.692,-10.925
0.051,-0.728,-0.502,-126.892,-53.650,-16.235
0.084,-0.777,-0.445,-86.548,-44.128,-17.700
0.074,-0.847,-0.407,-60.913,-33.325,-16.907
0.054,-0.919,-0.387,-50.964,-20.203,-15.869
0.054,-0.987,-0.345,-54.382,-4.456,-14.648
0.074,-1.028,-0.271,-68.665,13.428,-13.672
0.096,-1.017,-0.189,-86.426,32.043,-11.780
0.115,-0.981,-0.092,-102.112,48.462,-8.423
0.129,-0.935,0.033,-115.295,62.073,-6.226
0.135,-0.908,0.148,-124.146,72.754,-5.737
0.123,-0.860,0.235,-126.892,79.163,-4.822
0.140,-0.839,0.306,-126.526,83.679,-5.188
0.139,-0.818,0.371,-123.596,88.257,-4.456
0.092,-0.754,0.375,-117.554,92.712,-2.258
0.112,-0.773,0.458,-103.088,94.177,-3.662
0.115,-0.797,0.512,-89.722,96.008,-7.324
0.132,-0.804,0.562,-80.322,100.098,-7.080
0.147,-0.780,0.605,-72.266,102.051,-6.653
0.143,-0.767,0.651,-65.247,102.356,-7.446
0.157,-0.760,0.695,-57.922,103.149,-8.118
0.175,-0.743,0.738,-48.950,103.271,-8.362
0.182,-0.741,0.783,-39.734,100.830,-9.521
0.180,-0.752,0.822,-29.602,95.825,-10.559
0.175,-0.776,0.843,-20.569,89.844,-12.451
0.161,-0.789,0.863,-17.090,83.313,-15.686
0.150,-0.776,0.880,-19.592,76.538,-20.142
0.138,-0.750,0.896,-25.757,70.313,-24.597
0.139,-0.697,0.905,-33.508,64.941,-28.015
0.147,-0.635,0.909,-39.246,59.998,-28.687
0.139,-0.577,0.908,-41.260,54.871,-26.672
0.123,-0.548,0.905,-38.879,49.683,-23.987
0.111,-0.530,0.894,-32.532,44.617,-20.813
0.091,-0.532,0.889,-24.231,40.039,-18.188
0.073,-0.541,0.881,-15.991,35.950,-16.357
0.064,-0.563,0.874,-8.423,33.020,-14.465
0.063,-0.589,0.865,-2.930,31.189,-13.062
0.066,-0.608,0.854,0.916,29.053,-11.658
0.068,-0.624,0.842,3.967,25.818,-10.559
0.061,-0.650,0.830,5.981,21.606,-9.399
0.057,-0.678,0.811,5.798,17.395,-8.057
0.049,-0.707,0.791,4.089,13.428,-6.042
0.038,-0.731,0.770,0.854,9.155,-4.333
0.032,-0.760,0.745,-3.113,5.493,-2.930
0.021,-0.775,0.721,-8.362,2.563,-1.648
0.013,-0.787,0.702,-13.672,0.122,-0.977
0.011,-0.794,0.675,-17.822,-0.916,-0.977
0.008,-0.792,0.657,-19.226,-1.343,-0.854
0.010,-0.788,0.648,-18.066,-1.831,-1.587
0.016,-0.787,0.647,-14.221,-2.319,-2.625
0.023,-0.795,0.649,-9.583,-3.113,-3.784
0.030,-0.809,0.652,-5.432,-4.150,-4.272
0.044,-0.818,0.645,-3.235,-5.493,-4.272
0.050,-0.832,0.644,-1.526,-7.751,-3.418
0.053,-0.855,0.635,-0.061,-10.925,-2.563
0.051,-0.882,0.621,-0.122,-14.038,-1.526
0.051,-0.898,0.600,-2.625,-16.907,-0.366
0.047,-0.906,0.573,-7.141,-19.531,0.488
0.045,-0.896,0.548,-13.000,-21.301,0.977
0.044,-0.882,0.525,-16.663,-22.339,2.136
0.039,-0.864,0.505,-17.334,-23.193,2.808
0.035,-0.852,0.488,-15.137,-23.010,3.235
0.040,-0.854,0.479,-10.498,-21.851,4.639
0.040,-0.823,0.451,-4.883,-20.020,7.019
0.030,-0.825,0.447,1.892,-20.081,7.019
0.026,-0.851,0.445,10.132,-20.813,6.470
0.030,-0.876,0.435,15.869,-20.935,5.920
0.031,-0.891,0.437,17.578,-21.362,5.676
0.034,-0.901,0.440,15.198,-21.729,5.371
0.042,-0.901,0.442,10.132,-21.667,5.737
0.043,-0.894,0.432,3.601,-22.278,6.775
0.044,-0.884,0.430,-2.319,-23.621,8.118
0.041,-0.869,0.421,-7.690,-24.048,9.399
0.042,-0.865,0.415,-10.864,-23.560,10.437
0.042,-0.870,0.415,-10.620,-22.339,11.047
0.043,-0.879,0.414,-7.812,-20.874,11.414
0.042,-0.892,0.419,-3.906,-19.714,10.559
0.036,-0.914,0.422,0.427,-18.799,9.277
0.036,-0.929,0.431,3.235,-17.395,7.446
0.041,-0.935,0.426,4.150,-16.113,5.310
0.042,-0.928,0.430,3.784,-15.076,2.930
0.038,-0.914,0.436,2.930,-14.648,1.221
0.034,-0.899,0.438,1.404,-14.526,-0.305
0.035,-0.887,0.436,0.183,-14.343,-0.854
0.036,-0.880,0.435,-1.587,-14.038,-1.099
0.031,-0.869,0.435,-3.479,-13.611,-0.610
0.026,-0.860,0.433,-4.578,-13.000,0.244
0.015,-0.851,0.438,-4.883,-12.024,0.977
0.001,-0.846,0.440,-4.822,-10.498,1.038
-0.001,-0.845,0.444,-3.601,-8.545,1.343
0.000,-0.843,0.452,-1.953,-6.836,0.854
-0.002,-0.838,0.454,-0.305,-5.066,0.610
-0.001,-0.836,0.455,1.160,-3.601,0.610
0.001,-0.844,0.458,2.136,-2.197,0.916
-0.001,-0.850,0.461,2.197,-0.549,1.282
0.002,-0.855,0.467,2.075,0.916,2.197
0.009,-0.860,0.474,1.770,2.014,2.747
0.013,-0.865,0.480,1.587,2.380,2.808
0.006,-0.869,0.486,1.404,2.441,2.930
0.006,-0.866,0.491,1.038,2.502,2.869
0.007,-0.864,0.485,1.160,2.563,2.197
0.008,-0.866,0.486,2.319,2.380,2.075
0.003,-0.863,0.490,3.418,2.686,1.831
0.005,-0.865,0.495,4.333,3.052,1.648
-0.385,-1.358,-3.479,187.622,85.266,15.198
-0.233,-1.775,-1.288,146.973,111.023,1.892
-0.161,-1.982,-0.611,52.063,107.544,-21.179
-0.121,-1.594,-0.249,12.329,34.424,-22.766
-0.118,-1.343,-0.240,11.353,-3.113,-32.776
0.024,-1.289,-0.421,1.770,-21.973,-26.917
0.095,-1.166,-0.587,-33.875,-42.542,-11.719
0.030,-1.202,-0.768,-76.660,-58.899,-0.366
0.002,-1.249,-0.859,-98.877,-57.800,-0.977
-0.224,-1.268,-0.871,-119.507,-39.551,-5.493
-0.084,-1.168,-0.814,-143.799,-6.714,-8.057
0.003,-1.026,-0.718,-158.569,21.301,-11.963
0.091,-0.930,-0.603,-146.179,29.114,-22.278
0.113,-0.904,-0.455,-115.662,23.010,-35.217
0.104,-0.942,-0.339,-84.961,15.747,-44.434
0.116,-1.000,-0.244,-65.613,10.132,-47.363
0.110,-1.021,-0.152,-61.584,4.761,-45.654
0.097,-1.033,-0.095,-70.007,-0.122,-39.673
0.079,-1.042,-0.106,-82.886,-1.526,-31.311
0.056,-1.027,-0.152,-93.079,1.831,-22.888
0.039,-1.045,-0.190,-101.868,10.742,-17.395
0.008,-1.074,-0.224,-109.680,26.245,-16.479
-0.008,-1.060,-0.191,-116.760,46.631,-18.250
0.007,-1.003,-0.094,-121.704,69.214,-20.264
0.063,-0.953,0.032,-122.253,90.820,-22.583
0.161,-0.919,0.181,-116.455,106.201,-24.841
0.202,-0.894,0.301,-106.567,112.549,-27.954
0.203,-0.908,0.399,-98.389,112.122,-30.579
0.206,-0.910,0.473,-94.849,110.474,-30.640
0.197,-0.887,0.538,-94.543,106.445,-30.029
0.158,-0.846,0.595,-94.360,102.966,-29.663
0.164,-0.790,0.640,-92.896,102.783,-30.212
0.159,-0.747,0.690,-90.881,102.112,-32.715
0.143,-0.712,0.769,-88.440,102.112,-34.607
0.132,-0.639,0.793,-87.463,105.591,-33.508
0.152,-0.594,0.852,-83.984,107.117,-34.180
0.162,-0.591,0.914,-75.806,106.018,-36.194
0.196,-0.571,0.923,-62.561,103.760,-35.400
0.193,-0.554,0.922,-48.889,96.069,-34.729
0.204,-0.551,0.934,-36.316,86.243,-35.828
0.184,-0.538,0.946,-26.184,75.317,-37.476
0.175,-0.516,0.942,-17.578,65.552,-39.368
0.160,-0.500,0.929,-9.644,56.702,-41.199
0.142,-0.490,0.912,-1.831,47.791,-41.504
0.136,-0.479,0.892,5.310,39.856,-40.710
0.122,-0.481,0.879,11.902,33.203,-39.551
0.102,-0.490,0.869,17.578,28.320,-37.598
0.090,-0.500,0.858,21.240,23.926,-34.729
0.079,-0.507,0.839,21.667,19.897,-31.555
0.042,-0.516,0.824,20.142,16.235,-27.466
0.012,-0.521,0.813,15.381,15.137,-22.217
0.012,-0.536,0.800,10.193,16.602,-16.479
0.024,-0.558,0.784,6.531,18.311,-10.559
0.021,-0.583,0.784,4.700,17.761,-5.432
0.014,-0.612,0.779,3.601,16.113,-2.808
0.030,-0.628,0.807,3.906,14.648,-0.916
0.002,-0.670,0.787,6.287,10.742,0.793
-0.007,-0.694,0.781,6.226,8.301,1.343
-0.001,-0.707,0.773,5.737,7.629,1.648
0.001,-0.708,0.793,6.592,5.920,1.526
0.019,-0.728,0.769,13.184,0.854,0.183
-0.007,-0.742,0.746,18.066,-2.319,-0.854
0.001,-0.752,0.728,14.893,-3.113,-1.526
-0.001,-0.774,0.731,9.521,-4.150,-1.343
-0.004,-0.782,0.732,5.310,-5.127,-0.854
0.001,-0.780,0.722,3.845,-6.592,0.549
0.001,-0.790,0.705,3.479,-8.911,2.258
0.002,-0.800,0.685,3.723,-12.268,4.150
-0.005,-0.818,0.669,4.211,-16.174,5.493
-0.015,-0.843,0.645,3.723,-19.653,6.165
-0.022,-0.859,0.611,2.014,-22.827,6.775
-0.030,-0.865,0.591,-0.122,-25.146,6.958
-0.027,-0.865,0.556,-2.258,-26.428,6.653
-0.036,-0.864,0.543,-3.296,-27.222,6.897
-0.029,-0.856,0.532,-3.540,-27.588,7.263
-0.025,-0.856,0.510,-3.052,-27.527,7.874
-0.042,-0.840,0.503,-3.113,-26.917,8.789
-0.038,-0.831,0.497,-2.686,-26.062,9.583
-0.072,-0.848,0.504,-2.502,-24.780,9.094
-0.029,-0.840,0.473,-2.197,-22.095,10.681
-0.021,-0.851,0.486,-2.441,-20.935,9.827
-0.046,-0.851,0.501,-2.441,-23.987,7.690
-0.030,-0.850,0.489,-3.174,-21.729,9.460
-0.012,-0.845,0.479,-3.784,-19.592,10.742
-0.022,-0.859,0.477,-4.333,-20.020,10.742
0.002,-0.870,0.465,-3.662,-20.813,10.498
-0.026,-0.898,0.451,-2.136,-23.132,10.071
-0.044,-0.914,0.435,-2.747,-23.132,8.789
-0.036,-0.908,0.426,-4.395,-20.630,7.202
-0.032,-0.899,0.424,-4.700,-18.860,5.493
-0.035,-0.895,0.430,-4.639,-17.761,3.479
-0.033,-0.886,0.439,-4.089,-15.686,2.808
-0.028,-0.873,0.447,-4.333,-13.367,2.075
-0.018,-0.871,0.461,-4.517,-11.963,1.343
-0.018,-0.870,0.478,-4.333,-11.658,0.977
-0.015,-0.872,0.489,-4.517,-11.292,1.282
-0.013,-0.871,0.489,-5.493,-11.292,1.404
-0.008,-0.868,0.486,-5.859,-12.085,2.136
-0.013,-0.868,0.484,-6.409,-13.245,2.380
-0.024,-0.869,0.476,-6.531,-14.282,2.319
-0.032,-0.863,0.470,-5.493,-14.282,1.709
-0.037,-0.858,0.467,-3.601,-13.489,0.366
-0.042,-0.842,0.461,-1.770,-12.207,-1.221
-0.046,-0.833,0.460,0.977,-11.169,-1.648
-0.048,-0.828,0.466,3.540,-9.766,-1.404
-0.057,-0.828,0.469,5.188,-8.301,-0.916
-0.059,-0.830,0.470,6.042,-7.019,0.122
-0.067,-0.840,0.472,5.859,-5.676,1.648
-0.068,-0.849,0.470,5.066,-3.845,3.052
-0.065,-0.857,0.468,4.211,-2.563,4.456
-0.063,-0.857,0.471,2.930,-1.526,4.944
-0.057,-0.852,0.477,2.075,-0.732,4.944
-0.058,-0.850,0.479,2.197,-0.305,4.761
-0.053,-0.847,0.486,2.747,-0.244,4.761
-0.051,-0.850,0.487,3.235,-0.244,4.272
-0.050,-0.856,0.489,4.761,-0.366,4.150
-0.053,-0.860,0.495,5.371,-0.244,4.028
-0.049,-0.861,0.496,5.310,0.305,3.601
-0.048,-0.861,0.501,4.700,0.549,2.930
-0.450,-1.647,-2.133,68.054,-118.042,15.869
-0.868,-1.750,-3.141,57.922,-12.146,-7.690
-0.357,-1.270,-2.615,98.511,150.940,-36.865
-0.556,-1.177,-1.520,20.935,180.664,-18.555
0.042,-1.371,-1.124,44.312,113.098,-14.343
-0.027,-1.512,-0.587,47.485,41.870,-24.292
-0.100,-1.579,-0.560,18.433,2.380,-30.762
0.123,-1.546,-0.858,-41.260,-14.404,-28.381
-0.159,-1.298,-0.905,-96.069,-17.578,-21.057
-0.268,-1.205,-0.976,-151.672,4.761,-10.010
-0.193,-1.167,-0.983,-198.669,43.335,-8.850
-0.054,-0.972,-0.924,-218.323,76.050,-14.893
0.013,-0.821,-0.780,-205.444,91.797,-27.832
0.042,-0.744,-0.644,-171.082,96.375,-41.504
0.041,-0.718,-0.506,-129.700,96.497,-49.866
0.051,-0.726,-0.377,-92.896,98.572,-52.856
0.064,-0.766,-0.267,-64.575,102.905,-51.392
0.072,-0.830,-0.162,-46.082,106.750,-46.936
0.102,-0.857,-0.093,-39.551,111.267,-38.025
0.145,-0.910,0.002,-44.678,114.563,-28.503
0.137,-0.959,0.119,-54.016,114.075,-19.043
0.111,-0.989,0.188,-65.857,113.708,-11.536
0.068,-0.969,0.263,-83.740,112.000,-6.104
0.042,-0.928,0.357,-107.788,110.046,-1.526
0.059,-0.886,0.441,-132.446,110.352,2.258
0.081,-0.842,0.514,-149.597,111.572,5.981
0.104,-0.795,0.583,-157.043,112.732,8.667
0.098,-0.747,0.647,-156.006,114.380,10.132
0.091,-0.731,0.729,-149.902,116.150,9.277
0.121,-0.745,0.801,-137.817,117.126,6.348
0.126,-0.761,0.889,-121.338,116.150,1.709
0.149,-0.761,0.933,-103.638,111.450,-3.845
0.154,-0.748,0.977,-88.074,103.516,-9.766
0.166,-0.707,1.005,-74.890,95.276,-15.564
0.170,-0.677,0.999,-59.082,85.815,-21.362
0.171,-0.621,1.012,-42.114,74.890,-27.405
0.172,-0.583,0.974,-25.269,63.965,-34.241
0.112,-0.583,0.969,-12.756,54.871,-40.771
0.087,-0.568,0.942,-4.944,49.011,-44.128
0.036,-0.523,0.956,-0.610,43.640,-40.649
0.007,-0.486,0.922,1.892,45.166,-33.936
0.014,-0.486,0.899,3.418,49.255,-27.771
0.019,-0.508,0.891,5.615,51.819,-25.452
0.016,-0.533,0.890,8.118,52.063,-26.428
0.014,-0.548,0.890,9.216,51.147,-27.710
0.018,-0.550,0.881,9.338,48.462,-29.602
0.030,-0.548,0.845,9.460,43.762,-31.555
0.014,-0.542,0.849,8.240,36.987,-32.410
-0.007,-0.567,0.845,7.263,29.724,-32.043
-0.012,-0.590,0.823,6.287,24.231,-30.029
-0.025,-0.599,0.818,2.625,18.921,-27.832
-0.042,-0.594,0.809,-2.136,15.381,-25.757
-0.052,-0.579,0.799,-6.531,13.550,-22.888
-0.059,-0.573,0.792,-7.996,11.658,-19.287
-0.068,-0.582,0.788,-8.057,9.277,-15.869
-0.081,-0.593,0.782,-7.629,6.775,-12.756
-0.092,-0.610,0.773,-6.653,4.578,-9.766
-0.099,-0.633,0.757,-5.798,2.808,-7.019
-0.107,-0.656,0.747,-6.226,1.221,-5.371
-0.114,-0.669,0.738,-6.775,-0.183,-4.272
-0.116,-0.682,0.729,-7.568,-1.465,-3.357
-0.112,-0.690,0.721,-7.629,-2.502,-2.808
-0.116,-0.703,0.712,-6.348,-3.357,-2.319
-0.124,-0.718,0.709,-4.700,-4.333,-1.709
-0.125,-0.730,0.704,-4.150,-4.578,-1.160
-0.113,-0.743,0.699,-3.418,-4.517,-0.305
-0.103,-0.754,0.698,-2.502,-4.150,0.549
-0.098,-0.756,0.697,-1.709,-4.272,1.587
-0.085,-0.762,0.696,-0.793,-5.127,2.563
-0.077,-0.768,0.691,-0.122,-5.920,3.601
-0.071,-0.769,0.684,-1.038,-6.592,5.310
-0.067,-0.769,0.676,-1.770,-7.019,7.629
-0.057,-0.775,0.661,-1.709,-7.568,9.521
-0.055,-0.778,0.646,-0.916,-8.362,10.681
-0.055,-0.781,0.633,-0.549,-9.155,11.780
-0.053,-0.778,0.616,-0.061,-9.888,13.062
-0.056,-0.773,0.600,0.977,-10.986,13.733
-0.052,-0.767,0.589,3.479,-11.841,14.587
-0.051,-0.773,0.574,5.981,-12.512,15.442
-0.057,-0.790,0.558,9.033,-13.916,15.930
-0.075,-0.794,0.552,11.658,-16.235,14.404
-0.045,-0.808,0.511,12.329,-15.869,14.282
-0.040,-0.833,0.530,11.047,-18.250,11.230
-0.061,-0.845,0.534,10.803,-20.142,10.742
-0.065,-0.857,0.509,9.155,-17.212,11.414
-0.050,-0.860,0.496,7.080,-14.526,10.864
-0.046,-0.867,0.500,5.676,-14.587,9.033
-0.059,-0.875,0.507,5.310,-15.625,6.592
-0.061,-0.882,0.506,4.211,-15.259,4.333
-0.060,-0.878,0.513,2.808,-14.954,2.991
-0.059,-0.872,0.521,1.465,-15.015,1.953
-0.062,-0.863,0.524,0.122,-15.198,1.465
-0.062,-0.851,0.521,-2.014,-15.198,1.831
-0.063,-0.842,0.522,-4.700,-15.503,2.563
-0.065,-0.833,0.523,-6.836,-15.747,2.808
-0.075,-0.831,0.516,-6.836,-15.808,3.113
-0.083,-0.825,0.516,-5.859,-15.503,2.808
-0.086,-0.813,0.514,-3.601,-14.282,2.014
-0.090,-0.806,0.514,-1.282,-12.695,1.099
-0.090,-0.802,0.519,0.610,-11.292,0.549
-0.087,-0.789,0.522,2.136,-9.644,0.183
-0.087,-0.785,0.525,4.578,-8.728,0.366
-0.090,-0.788,0.527,6.531,-7.812,0.977
-0.094,-0.798,0.526,7.446,-6.592,2.136
-0.099,-0.803,0.524,7.507,-5.554,3.296
-0.108,-0.806,0.521,6.836,-4.700,3.784
-0.109,-0.802,0.522,4.883,-3.845,3.967
-0.106,-0.802,0.525,3.479,-2.747,4.822
-0.104,-0.799,0.531,2.991,-1.770,5.493
-0.104,-0.798,0.529,3.540,-0.793,6.348
-0.105,-0.804,0.533,4.456,-0.183,6.714
-0.107,-0.819,0.538,5.676,0.854,6.836
-0.107,-0.822,0.542,6.165,2.075,6.226
-0.100,-0.828,0.551,7.385,2.930,5.676
-0.094,-0.831,0.560,7.690,3.479,5.188
-0.091,-0.829,0.567,7.202,3.479,4.578
-0.088,-0.829,0.571,6.226,3.235,4.211
-0.087,-0.831,0.569,5.188,2.136,3.906
-0.089,-0.826,0.562,3.723,0.854,3.235
0.159,-1.763,-1.323,8.667,-361.633,102.478
-0.099,-1.760,-1.700,-37.354,-337.891,86.853
-0.326,-1.675,-1.915,-65.247,-292.908,73.547
-0.904,-1.636,-4.000,-45.715,-208.740,54.199
-1.550,-1.609,-2.384,109.009,-57.068,-1.648
-1.131,-1.480,-1.974,91.492,44.861,-3.723
-0.311,-1.694,-1.194,75.989,68.726,-5.493
0.013,-1.625,-0.846,38.513,38.452,-6.165
-0.228,-1.634,-0.844,50.171,-15.747,-15.503
-0.351,-1.444,-0.930,57.251,-42.908,-35.095
-0.265,-1.356,-0.998,10.742,-27.649,-35.583
-0.203,-1.192,-0.932,-47.424,6.165,-23.499
-0.123,-1.057,-0.780,-78.369,33.997,-11.230
-0.079,-0.981,-0.674,-85.754,49.622,-5.310
-0.088,-0.945,-0.508,-79.956,54.382,-6.653
-0.044,-0.981,-0.476,-72.083,64.331,-14.893
-0.015,-0.970,-0.357,-64.392,65.735,-25.879
0.029,-0.932,-0.279,-58.777,66.772,-31.494
0.063,-0.914,-0.198,-55.176,68.298,-34.607
0.094,-0.892,-0.102,-51.575,68.298,-34.119
0.135,-0.875,-0.007,-48.218,68.298,-29.724
0.156,-0.866,0.090,-46.204,68.176,-23.560
0.159,-0.875,0.182,-44.128,67.322,-17.151
0.141,-0.880,0.268,-43.030,66.833,-10.010
0.098,-0.873,0.325,-44.495,68.726,-3.601
0.070,-0.864,0.390,-47.546,72.693,2.075
0.047,-0.853,0.456,-51.025,77.271,6.348
0.039,-0.849,0.517,-53.650,82.886,9.155
0.051,-0.859,0.572,-54.199,87.585,11.414
0.058,-0.860,0.618,-52.002,89.355,12.695
0.069,-0.857,0.662,-48.218,88.745,11.719
0.074,-0.852,0.700,-42.908,86.365,9.521
0.067,-0.845,0.734,-36.743,83.069,7.202
0.066,-0.825,0.761,-31.189,78.857,4.944
0.031,-0.809,0.791,-25.879,74.768,2.502
0.029,-0.801,0.790,-20.935,72.021,-0.671
0.029,-0.803,0.785,-15.442,68.665,-3.662
0.023,-0.796,0.771,-7.690,64.758,-7.019
0.004,-0.779,0.754,1.038,60.608,-10.803
-0.032,-0.780,0.743,10.925,57.251,-15.625
-0.053,-0.780,0.683,21.057,58.105,-20.325
-0.069,-0.762,0.677,28.748,59.204,-22.644
-0.089,-0.732,0.687,34.729,61.340,-21.606
-0.073,-0.719,0.678,39.612,66.467,-18.494
-0.056,-0.732,0.656,41.016,72.083,-15.930
-0.053,-0.775,0.622,38.635,75.867,-15.076
-0.056,-0.773,0.598,33.997,77.332,-14.954
-0.032,-0.787,0.585,27.710,76.782,-17.944
-0.042,-0.802,0.608,21.667,73.547,-23.621
-0.034,-0.807,0.635,15.381,67.505,-28.992
-0.036,-0.810,0.678,8.667,58.899,-33.752
-0.044,-0.809,0.722,1.892,49.561,-37.170
-0.049,-0.794,0.740,-2.991,41.443,-36.865
-0.055,-0.784,0.735,-7.202,33.813,-33.142
-0.077,-0.766,0.715,-11.414,25.879,-27.893
-0.102,-0.769,0.685,-15.076,18.555,-22.766
-0.118,-0.790,0.642,-17.639,13.245,-18.250
-0.134,-0.812,0.590,-20.752,11.353,-15.686
-0.156,-0.829,0.543,-23.315,11.902,-14.832
-0.162,-0.834,0.516,-24.963,14.038,-15.625
-0.166,-0.840,0.509,-25.208,17.334,-16.785
-0.159,-0.826,0.517,-24.475,21.362,-17.883
-0.140,-0.811,0.537,-22.278,24.170,-18.616
-0.118,-0.800,0.562,-19.348,24.780,-18.921
-0.105,-0.795,0.584,-14.587,22.644,-17.944
-0.101,-0.800,0.596,-9.216,18.677,-15.686
-0.103,-0.809,0.598,-4.456,13.794,-13.062
-0.103,-0.826,0.602,-1.282,8.667,-9.888
-0.098,-0.842,0.596,0.244,4.211,-6.287
-0.096,-0.864,0.581,-0.244,0.427,-3.174
-0.098,-0.885,0.552,-1.892,-2.808,-0.793
-0.116,-0.906,0.512,-4.089,-4.944,1.343
-0.126,-0.920,0.472,-6.897,-5.188,2.197
-0.123,-0.915,0.449,-8.972,-4.333,2.380
-0.113,-0.901,0.445,-9.399,-3.174,2.869
-0.093,-0.899,0.445,-7.629,-2.808,3.845
-0.083,-0.896,0.439,-3.784,-3.906,6.470
-0.082,-0.897,0.433,0.061,-6.287,9.338
-0.081,-0.912,0.429,3.784,-10.010,10.742
-0.077,-0.934,0.411,6.653,-13.794,12.085
-0.079,-0.941,0.390,8.118,-17.212,13.123
-0.073,-0.950,0.364,8.667,-20.691,13.062
-0.066,-0.967,0.346,9.033,-24.048,12.024
-0.101,-0.976,0.314,8.179,-25.940,9.827
-0.084,-0.997,0.280,4.944,-25.879,7.507
-0.111,-0.981,0.287,1.770,-27.344,4.272
-0.120,-0.975,0.268,-0.793,-24.780,2.930
-0.113,-0.959,0.261,-2.625,-21.179,0.061
-0.106,-0.939,0.264,-2.747,-19.287,-1.831
-0.094,-0.928,0.267,-1.770,-18.311,-3.235
-0.099,-0.928,0.283,-0.183,-18.066,-4.456
-0.107,-0.927,0.289,1.160,-17.334,-4.517
-0.106,-0.924,0.297,1.770,-16.235,-4.089
-0.100,-0.916,0.308,2.197,-15.198,-3.906
-0.099,-0.911,0.312,3.235,-14.954,-3.357
-0.102,-0.911,0.317,3.845,-15.198,-2.808
-0.106,-0.917,0.316,4.028,-14.771,-2.930
-0.118,-0.922,0.308,3.479,-13.367,-2.991
-0.122,-0.913,0.307,1.892,-11.658,-3.113
-0.126,-0.897,0.311,0.183,-9.766,-3.174
-0.123,-0.883,0.314,-0.122,-7.385,-2.319
-0.124,-0.872,0.315,0.732,-5.371,-0.916
-0.129,-0.869,0.315,2.686,-3.967,0.488
-0.134,-0.868,0.317,5.127,-2.747,1.648
-0.136,-0.873,0.322,7.751,-1.160,2.625
-0.136,-0.882,0.329,9.216,0.427,3.418
-0.138,-0.887,0.338,10.559,1.343,5.005
-0.137,-0.891,0.346,11.108,2.197,5.859
-0.135,-0.898,0.354,10.986,2.808,6.287
-0.140,-0.907,0.362,10.254,3.479,7.019
-0.141,-0.909,0.368,8.850,4.395,7.751
-0.141,-0.905,0.372,6.592,5.249,7.751
-0.140,-0.907,0.375,5.310,5.188,7.874
-0.143,-0.911,0.376,4.639,5.371,7.812
-0.146,-0.908,0.374,3.845,5.798,7.202
-0.144,-0.905,0.378,3.723,6.165,6.287
-0.138,-0.901,0.383,4.028,6.531,5.920
-0.135,-0.902,0.383,4.333,6.592,5.371
-0.137,-0.912,0.383,5.737,6.042,5.005
0.489,-1.843,-1.919,67.383,-467.529,127.075
0.071,-1.977,-2.528,21.484,-434.814,98.022
-0.997,-2.092,-4.000,-47.302,-343.750,69.458
-2.536,-1.383,-4.000,-47.180,-96.130,17.517
-1.258,-1.224,-2.501,113.159,51.331,-15.686
-0.326,-1.535,-1.318,78.552,123.596,-7.568
-0.035,-1.477,-0.653,41.321,65.552,1.770
-0.257,-1.371,-0.446,75.439,-18.127,-19.897
-0.369,-1.281,-0.706,128.540,-76.477,-43.396
-0.636,-1.306,-0.776,107.178,-83.557,-53.162
-0.268,-1.054,-0.937,61.218,-49.805,-34.058
-0.157,-1.018,-0.754,13.550,-0.549,-18.799
-0.086,-0.940,-0.577,-12.512,12.695,-0.732
-0.046,-0.924,-0.462,-28.748,20.752,16.785
-0.041,-0.927,-0.387,-42.358,28.992,25.269
-0.035,-0.927,-0.320,-54.749,37.109,23.071
-0.049,-0.930,-0.261,-62.622,44.739,16.479
-0.041,-0.932,-0.199,-66.162,53.528,10.498
-0.005,-0.938,-0.116,-67.932,63.049,8.057
0.037,-0.920,-0.019,-68.359,71.289,9.399
0.057,-0.898,0.079,-67.932,77.637,11.719
0.041,-0.880,0.185,-63.721,81.360,12.817
0.029,-0.859,0.266,-54.565,83.496,14.832
0.016,-0.845,0.339,-42.725,84.351,16.357
0.001,-0.848,0.405,-30.273,84.717,17.517
-0.001,-0.857,0.454,-18.738,84.351,18.433
0.009,-0.871,0.481,-8.789,81.482,18.372
0.003,-0.889,0.504,-0.671,76.660,16.968
-0.010,-0.915,0.512,5.554,71.350,15.259
-0.036,-0.935,0.500,9.705,67.078,13.245
-0.077,-0.942,0.505,10.010,64.941,10.803
-0.112,-0.948,0.504,6.226,66.650,8.423
-0.131,-0.941,0.491,-0.366,72.998,6.653
-0.118,-0.923,0.488,-7.202,79.834,5.371
-0.109,-0.891,0.494,-12.146,84.473,4.761
-0.112,-0.875,0.502,-13.855,87.158,4.456
-0.116,-0.868,0.500,-13.367,89.478,4.028
-0.105,-0.870,0.487,-10.620,92.224,3.357
-0.094,-0.893,0.472,-6.226,95.032,1.587
-0.115,-0.916,0.441,-2.747,99.487,-1.343
-0.102,-0.927,0.426,-2.563,106.079,-3.418
-0.110,-0.902,0.446,-3.479,109.436,-5.920
-0.132,-0.881,0.448,-3.662,114.990,-8.179
-0.117,-0.870,0.431,-3.967,122.925,-11.658
-0.067,-0.865,0.446,-5.127,128.052,-15.747
-0.014,-0.883,0.481,-6.409,127.502,-20.813
-0.006,-0.895,0.540,-8.057,122.314,-26.428
0.006,-0.905,0.611,-11.108,113.831,-30.518
0.003,-0.913,0.689,-15.076,102.539,-32.227
0.003,-0.917,0.736,-19.592,91.125,-30.396
0.004,-0.922,0.749,-24.231,80.139,-26.489
-0.004,-0.916,0.731,-29.663,68.787,-22.339
-0.020,-0.906,0.693,-34.424,57.068,-18.677
-0.045,-0.896,0.647,-36.804,46.326,-16.357
-0.078,-0.896,0.599,-36.987,38.452,-16.174
-0.108,-0.899,0.552,-35.156,33.875,-17.456
-0.132,-0.886,0.525,-31.860,32.532,-20.142
-0.128,-0.860,0.525,-27.283,33.264,-23.132
-0.105,-0.837,0.538,-21.423,34.119,-25.391
-0.091,-0.828,0.547,-15.015,32.593,-25.635
-0.090,-0.821,0.553,-8.301,29.114,-24.231
-0.095,-0.829,0.558,-1.526,23.865,-21.851
-0.096,-0.865,0.545,4.822,18.250,-18.738
-0.105,-0.911,0.517,9.399,13.000,-15.137
-0.123,-0.941,0.488,10.315,8.423,-11.902
-0.135,-0.965,0.454,8.606,5.676,-9.521
-0.136,-0.965,0.425,5.188,4.395,-7.996
-0.138,-0.963,0.408,2.075,3.540,-6.531
-0.138,-0.948,0.390,0.793,3.296,-5.493
-0.133,-0.929,0.380,1.465,2.441,-5.066
-0.122,-0.922,0.369,4.822,0.366,-4.456
-0.118,-0.925,0.356,9.827,-2.502,-3.479
-0.122,-0.933,0.336,15.076,-5.371,-2.747
-0.134,-0.939,0.316,19.226,-7.507,-2.258
-0.137,-0.950,0.297,21.423,-8.057,-1.831
-0.133,-0.958,0.283,21.606,-7.263,-1.770
-0.125,-0.955,0.282,19.653,-6.226,-1.709
-0.119,-0.947,0.284,16.724,-5.981,-1.709
-0.118,-0.952,0.267,14.038,-6.348,-2.319
-0.122,-0.951,0.258,12.085,-6.042,-3.174
-0.122,-0.957,0.252,10.193,-5.554,-4.150
-0.122,-0.967,0.242,7.202,-4.395,-5.188
-0.128,-0.963,0.246,3.723,-3.479,-6.531
-0.128,-0.954,0.260,0.183,-2.991,-7.690
-0.126,-0.940,0.274,-2.808,-2.625,-8.789
-0.117,-0.927,0.292,-3.845,-3.113,-9.277
-0.115,-0.917,0.306,-4.211,-4.395,-9.155
-0.120,-0.908,0.311,-3.967,-5.676,-8.484
-0.123,-0.903,0.311,-2.991,-7.263,-7.019
-0.125,-0.904,0.309,-1.343,-9.033,-5.737
-0.133,-0.912,0.302,-0.671,-10.193,-4.944
-0.135,-0.925,0.289,-0.122,-10.254,-4.150
-0.148,-0.936,0.265,-0.244,-9.460,-3.601
-0.160,-0.938,0.250,-0.854,-6.897,-3.723
-0.160,-0.934,0.246,-1.282,-3.906,-4.211
-0.163,-0.922,0.252,-0.732,-1.221,-4.456
-0.165,-0.914,0.263,0.549,1.038,-4.517
-0.163,-0.912,0.270,3.052,2.380,-4.272
-0.161,-0.911,0.280,5.127,2.625,-3.784
-0.161,-0.911,0.289,5.981,2.747,-2.930
-0.164,-0.908,0.298,5.493,2.625,-1.770
-0.162,-0.905,0.308,3.906,2.625,-0.305
-0.160,-0.897,0.316,2.014,2.869,1.099
-0.157,-0.897,0.318,1.038,2.686,2.869
-0.158,-0.911,0.312,0.732,2.380,4.150
-0.171,-0.915,0.305,1.038,2.747,4.761
-0.172,-0.916,0.305,1.709,3.784,4.395
-0.158,-0.919,0.314,3.235,4.944,4.395
-0.150,-0.926,0.323,4.761,5.249,4.578
-0.153,-0.939,0.322,6.714,4.761,5.127
-0.157,-0.946,0.320,7.446,3.967,4.944
-0.161,-0.951,0.318,7.202,3.052,4.517
-0.161,-0.953,0.317,6.348,2.258,4.150
-0.157,-0.949,0.319,5.249,1.648,3.784
-0.155,-0.947,0.316,3.845,0.671,3.479
-0.159,-0.955,0.304,3.601,-0.427,3.418
-0.170,-0.959,0.294,3.296,-0.732,2.441
-0.171,-0.957,0.291,2.197,-0.366,0.854
-0.165,-0.953,0.299,1.953,0.183,-0.488
0.577,-1.668,-1.680,93.323,-486.572,195.007
0.121,-1.782,-2.070,89.966,-481.079,151.855
-0.398,-1.866,-2.243,68.054,-438.354,107.361
-0.802,-1.779,-2.238,49.072,-361.633,71.472
-0.958,-1.578,-2.065,49.866,-266.235,44.434
-1.109,-1.283,-1.987,73.303,-174.438,22.705
-0.839,-1.718,-2.466,175.964,-76.721,-15.503
-0.587,-1.178,-1.642,259.521,-10.681,-40.344
-0.306,-1.122,-1.222,172.485,-0.305,-22.644
-0.170,-1.202,-0.930,162.170,-48.828,-25.330
-0.237,-1.016,-0.578,225.525,-97.961,-41.687
-0.186,-0.824,-0.591,252.625,-115.723,-30.823
0.067,-0.906,-0.772,213.135,-93.018,-9.521
0.212,-1.146,-0.784,162.048,-107.788,-2.258
0.141,-1.363,-0.934,107.666,-111.023,9.949
-0.068,-1.373,-1.154,40.161,-93.750,21.912
-0.269,-1.352,-1.092,-36.377,-61.951,18.250
-0.331,-1.220,-0.968,-105.042,-16.602,10.132
-0.216,-1.004,-0.789,-139.893,24.231,5.249
-0.089,-0.880,-0.627,-144.958,52.795,-4.150
-0.032,-0.821,-0.474,-131.470,67.200,-14.526
-0.002,-0.808,-0.324,-109.924,71.228,-19.165
0.005,-0.817,-0.202,-85.999,71.533,-17.029
-0.021,-0.820,-0.100,-62.256,71.472,-10.315
-0.039,-0.845,-0.034,-40.710,72.144,-0.305
-0.065,-0.865,0.025,-22.949,73.486,10.803
-0.082,-0.891,0.074,-10.986,76.294,21.484
-0.101,-0.942,0.125,-4.700,79.895,29.663
-0.122,-1.000,0.168,-0.916,82.214,34.485
-0.152,-1.056,0.198,-0.427,85.510,34.363
-0.184,-1.081,0.232,-3.906,90.210,30.823
-0.193,-1.079,0.283,-10.559,96.497,25.574
-0.181,-1.051,0.342,-18.860,104.492,19.104
-0.153,-1.010,0.389,-25.940,111.938,12.512
-0.111,-0.966,0.431,-29.724,116.699,7.263
-0.076,-0.932,0.458,-30.640,117.981,4.089
-0.060,-0.913,0.471,-28.870,116.394,2.258
-0.060,-0.875,0.474,-25.208,112.366,1.709
-0.062,-0.862,0.458,-21.362,107.727,1.282
-0.071,-0.872,0.433,-16.113,102.966,0.732
-0.112,-0.881,0.383,-8.423,99.365,0.549
-0.151,-0.894,0.328,-2.319,99.243,-1.099
-0.214,-0.916,0.263,-0.061,105.774,-3.479
-0.257,-0.901,0.226,-1.038,119.568,-7.507
-0.237,-0.853,0.232,-4.333,137.329,-13.000
-0.192,-0.797,0.269,-7.385,154.602,-16.296
-0.082,-0.766,0.315,-7.080,167.297,-17.029
-0.033,-0.769,0.388,-3.906,172.974,-17.578
0.016,-0.800,0.411,-1.404,175.476,-18.677
0.011,-0.831,0.474,-1.587,173.767,-22.705
0.024,-0.852,0.550,-5.371,165.894,-26.917
0.037,-0.889,0.610,-11.536,154.480,-28.931
0.030,-0.944,0.640,-19.531,142.029,-28.076
0.023,-0.955,0.638,-30.212,130.981,-25.879
0.011,-0.942,0.650,-43.579,120.117,-23.254
0.007,-0.925,0.656,-57.251,109.009,-19.836
0.000,-0.884,0.656,-68.909,97.473,-16.357
-0.021,-0.851,0.650,-74.951,85.999,-13.428
-0.034,-0.825,0.628,-75.867,76.050,-11.902
-0.054,-0.805,0.609,-73.608,66.895,-11.536
-0.083,-0.793,0.572,-68.726,59.753,-12.451
-0.094,-0.777,0.561,-60.181,53.467,-13.611
-0.102,-0.767,0.550,-50.110,47.668,-14.404
-0.106,-0.772,0.544,-38.330,41.138,-13.367
-0.111,-0.786,0.538,-26.550,33.936,-10.681
-0.119,-0.813,0.526,-16.357,26.306,-7.812
-0.132,-0.852,0.507,-8.789,19.226,-5.310
-0.149,-0.888,0.480,-5.676,13.367,-3.296
-0.179,-0.922,0.443,-5.859,9.583,-2.136
-0.196,-0.926,0.416,-8.118,8.240,-1.282
-0.192,-0.924,0.415,-10.498,7.324,0.488
-0.176,-0.918,0.413,-11.597,5.737,3.906
-0.171,-0.914,0.419,-10.193,2.563,8.057
-0.174,-0.915,0.422,-7.202,-1.709,12.329
-0.173,-0.934,0.415,-3.845,-6.470,16.479
-0.161,-0.962,0.397,-0.427,-12.878,21.057
-0.156,-0.996,0.370,2.258,-20.020,24.719
-0.161,-1.034,0.332,2.563,-26.062,27.344
-0.172,-1.063,0.288,0.610,-30.151,29.297
-0.186,-1.074,0.254,-2.625,-31.555,30.029
-0.185,-1.072,0.223,-5.981,-30.823,29.297
-0.178,-1.064,0.190,-7.996,-29.541,27.344
-0.177,-1.058,0.177,-7.080,-28.320,23.987
-0.181,-1.047,0.179,-4.211,-26.917,18.860
-0.190,-1.039,0.190,-0.549,-25.330,14.099
-0.160,-1.068,0.189,2.197,-23.682,8.911
-0.172,-1.055,0.215,4.333,-25.085,3.845
-0.169,-1.053,0.205,5.859,-24.841,2.808
-0.165,-1.057,0.193,7.751,-23.926,0.671
-0.165,-1.057,0.189,8.179,-23.499,-2.136
-0.175,-1.052,0.188,7.629,-22.949,-4.944
-0.181,-1.047,0.190,6.348,-21.423,-8.179
-0.175,-1.033,0.193,4.578,-19.287,-10.925
-0.161,-1.019,0.199,3.723,-17.151,-12.451
-0.155,-1.003,0.209,3.540,-15.686,-12.939
-0.156,-0.989,0.218,3.601,-15.198,-12.756
-0.155,-0.974,0.226,3.601,-15.076,-12.329
-0.152,-0.959,0.235,3.662,-14.893,-11.719
-0.150,-0.948,0.241,3.357,-15.259,-11.230
-0.148,-0.939,0.246,3.479,-15.808,-10.071
-0.148,-0.935,0.243,3.662,-16.418,-8.667
-0.154,-0.938,0.236,3.601,-16.418,-7.446
-0.165,-0.937,0.222,3.296,-15.320,-6.653
-0.175,-0.931,0.215,3.174,-13.062,-6.714
-0.179,-0.922,0.218,3.235,-9.949,-7.263
-0.175,-0.911,0.224,4.456,-6.653,-6.836
-0.168,-0.900,0.232,6.348,-4.272,-5.981
-0.165,-0.894,0.241,8.362,-2.747,-5.066
-0.167,-0.893,0.252,10.193,-2.136,-4.028
-0.166,-0.899,0.261,11.169,-1.709,-2.808
-0.164,-0.901,0.272,10.742,-1.221,-1.770
-0.161,-0.900,0.282,10.010,-1.221,-0.244
-0.157,-0.902,0.286,8.911,-1.770,1.282
-0.160,-0.903,0.282,7.324,-2.319,2.625
-0.165,-0.911,0.274,5.981,-2.747,3.357
-0.175,-0.915,0.264,4.700,-2.441,3.601
-0.181,-0.911,0.261,3.601,-0.854,3.235
-0.178,-0.906,0.264,3.784,0.977,2.930
-0.174,-0.906,0.272,5.005,2.625,2.808
-0.281,-1.339,-1.290,57.434,-283.752,29.358
-0.350,-1.308,-1.412,56.458,-272.949,22.339
-0.165,-1.707,-2.685,61.340,-239.441,7.080
-1.489,-1.300,-2.724,74.890,-136.292,-46.387
-1.044,-1.007,-2.058,146.545,-82.336,-63.232
-0.554,-1.221,-1.656,172.668,-43.640,-47.852
-0.319,-1.268,-1.324,121.582,-20.996,-36.499
-0.305,-1.111,-1.081,108.521,-34.607,-43.091
-0.175,-0.983,-1.022,122.009,-46.326,-53.040
-0.230,-0.867,-0.993,110.352,-41.809,-44.678
-0.183,-0.806,-0.875,82.825,-31.006,-25.391
-0.148,-0.773,-0.775,52.246,-16.541,-5.920
-0.100,-0.789,-0.726,29.480,-5.249,7.202
-0.121,-0.829,-0.682,13.977,1.282,12.329
-0.180,-0.867,-0.628,-2.075,9.094,10.193
-0.220,-0.875,-0.561,-19.775,22.095,5.554
-0.201,-0.856,-0.484,-36.682,38.513,1.587
-0.140,-0.846,-0.416,-47.668,54.199,0.122
-0.105,-0.838,-0.351,-52.124,66.956,1.465
-0.092,-0.827,-0.279,-52.246,76.355,5.066
-0.101,-0.827,-0.201,-50.293,84.167,10.803
-0.104,-0.834,-0.134,-46.143,91.858,18.738
-0.110,-0.853,-0.072,-40.344,98.755,26.428
-0.146,-0.886,-0.013,-33.630,104.614,33.142
-0.194,-0.918,0.062,-28.503,109.802,37.659
-0.233,-0.927,0.151,-26.306,116.150,39.551
-0.249,-0.938,0.234,-29.358,125.305,40.955
-0.239,-0.928,0.322,-35.706,136.475,42.664
-0.212,-0.909,0.413,-41.748,146.179,43.274
-0.184,-0.897,0.502,-43.213,151.672,43.396
-0.159,-0.891,0.578,-39.673,152.832,43.396
-0.139,-0.906,0.630,-32.471,150.085,42.908
-0.126,-0.936,0.652,-25.024,145.264,41.626
-0.108,-0.959,0.664,-19.714,139.343,38.452
-0.088,-0.978,0.676,-18.738,133.057,32.959
-0.067,-0.974,0.682,-20.935,125.366,27.283
-0.044,-0.954,0.676,-24.536,116.516,21.973
-0.038,-0.925,0.664,-27.893,105.835,18.188
-0.026,-0.886,0.634,-29.419,95.032,16.296
-0.011,-0.837,0.592,-26.733,84.351,15.259
-0.055,-0.819,0.535,-22.400,75.745,12.756
-0.057,-0.806,0.474,-18.372,70.618,10.986
-0.073,-0.792,0.478,-15.137,65.918,7.874
-0.076,-0.784,0.455,-10.620,64.697,5.188
-0.071,-0.812,0.406,-6.287,64.941,0.183
-0.061,-0.859,0.398,-1.953,61.035,-4.639
-0.068,-0.909,0.396,1.831,53.101,-9.644
-0.091,-0.963,0.389,3.662,45.349,-14.709
-0.115,-1.004,0.390,2.136,39.001,-17.639
-0.130,-1.017,0.391,-1.221,35.339,-17.822
-0.135,-1.016,0.391,-6.592,33.813,-16.113
-0.138,-0.996,0.393,-12.573,32.776,-13.000
-0.144,-0.962,0.400,-18.005,30.823,-9.949
-0.154,-0.945,0.396,-21.118,28.259,-7.263
-0.164,-0.920,0.391,-21.729,25.269,-4.578
-0.172,-0.903,0.382,-20.264,21.851,-2.625
-0.178,-0.902,0.370,-17.456,18.433,-0.793
-0.182,-0.915,0.353,-13.794,15.259,1.160
-0.194,-0.934,0.329,-10.681,13.000,1.953
-0.206,-0.950,0.311,-7.996,12.207,2.014
-0.210,-0.964,0.301,-5.615,12.146,1.709
-0.213,-0.978,0.292,-3.601,12.695,0.366
-0.218,-0.990,0.292,-1.465,13.855,-1.099
-0.211,-0.993,0.300,0.427,14.832,-1.709
-0.200,-0.994,0.310,2.197,15.442,-2.075
-0.190,-0.993,0.323,3.906,14.648,-2.197
-0.182,-0.994,0.333,5.371,12.695,-1.709
-0.178,-0.997,0.338,5.920,10.254,-0.366
-0.175,-0.998,0.338,5.554,7.568,1.953
-0.171,-1.001,0.333,5.249,4.700,3.845
-0.169,-1.004,0.323,4.089,2.380,5.188
-0.173,-1.002,0.310,3.113,0.488,6.531
-0.173,-0.993,0.297,2.075,-1.160,7.751
-0.166,-0.989,0.278,1.526,-2.258,8.240
-0.169,-0.999,0.255,1.648,-3.113,8.606
-0.177,-0.989,0.232,1.953,-3.235,9.033
-0.182,-0.980,0.220,2.075,-2.930,7.996
-0.175,-0.978,0.218,2.686,-2.380,5.981
-0.163,-0.979,0.219,2.930,-1.831,3.723
-0.162,-0.985,0.224,2.319,-1.221,1.282
-0.167,-0.983,0.228,0.854,-0.549,-1.038
-0.158,-0.973,0.240,-0.793,-0.427,-2.502
-0.152,-0.966,0.248,-2.197,-0.610,-3.784
-0.150,-0.966,0.253,-3.174,-1.221,-4.883
-0.158,-0.968,0.248,-3.845,-1.587,-5.859
-0.165,-0.960,0.250,-5.066,-1.526,-7.385
-0.165,-0.950,0.251,-5.127,-1.282,-9.155
-0.159,-0.941,0.251,-4.211,-1.587,-10.315
-0.156,-0.931,0.252,-3.113,-2.075,-10.803
-0.159,-0.927,0.254,-2.014,-2.747,-10.803
-0.166,-0.929,0.248,-1.282,-3.479,-9.949
-0.166,-0.929,0.238,-1.343,-3.479,-8.850
-0.168,-0.927,0.231,-1.587,-3.662,-7.874
-0.173,-0.926,0.226,-1.526,-4.028,-6.348
-0.173,-0.932,0.219,-1.526,-4.028,-5.127
-0.180,-0.938,0.211,-1.465,-3.601,-4.150
-0.187,-0.934,0.208,-1.343,-2.563,-3.235
-0.188,-0.928,0.209,-0.977,-1.343,-2.686
-0.182,-0.926,0.209,0.183,0.000,-2.258
-0.185,-0.932,0.209,2.197,0.916,-1.404
-0.191,-0.937,0.210,3.174,2.258,-0.671
-0.186,-0.932,0.217,3.662,3.418,-0.183
-0.177,-0.932,0.224,4.211,3.845,0.366
-0.172,-0.936,0.228,4.456,3.845,1.221
-0.178,-0.942,0.226,4.150,3.296,2.197
-0.185,-0.940,0.220,4.089,2.747,3.052
-0.190,-0.934,0.218,3.662,2.441,3.174
-0.188,-0.929,0.216,3.784,2.563,3.601
-0.179,-0.930,0.212,3.967,2.686,4.333
-0.177,-0.950,0.203,4.578,2.441,4.944
-0.193,-0.958,0.195,5.249,2.686,5.188
-0.205,-0.961,0.197,4.944,3.418,4.639
-0.198,-0.961,0.203,4.272,4.944,3.784
-0.190,-0.955,0.208,3.784,5.859,2.808
-0.181,-0.959,0.215,3.601,6.042,2.136
-0.177,-0.966,0.223,3.235,5.676,1.831
-0.184,-0.972,0.232,2.991,5.066,1.831
-0.185,-0.976,0.235,2.441,4.333,1.343
-0.184,-0.971,0.243,1.587,3.784,0.427
0.718,-0.363,1.890,29.175,188.049,-43.762
0.808,-0.421,2.047,43.396,148.804,-32.532
0.907,-0.513,2.125,51.758,100.281,-17.517
0.948,-0.625,2.125,52.856,41.321,-2.686
0.946,-0.754,2.030,46.204,-22.461,9.766
0.954,-0.896,1.869,30.640,-85.327,21.301
0.974,-0.985,1.615,8.240,-140.137,33.997
0.971,-0.989,1.330,-14.160,-185.730,48.584
0.999,-0.891,1.094,-29.907,-225.281,62.256
1.025,-0.870,0.867,-35.400,-257.629,74.585
0.985,-0.843,0.687,-25.879,-288.635,88.379
0.901,-0.760,0.525,-1.709,-320.862,104.004
0.846,-0.692,0.319,28.381,-353.271,118.896
0.812,-0.732,0.042,66.833,-388.855,130.859
0.789,-0.830,-0.337,111.389,-427.185,134.033
0.834,-1.064,-0.790,152.771,-462.585,122.925
0.745,-1.432,-1.403,175.110,-485.962,94.299
0.447,-1.615,-1.859,165.466,-490.662,53.772
0.096,-1.661,-1.987,122.314,-465.332,17.761
-0.102,-1.490,-1.935,68.298,-405.029,-1.953
-0.198,-1.243,-1.810,35.034,-331.787,-4.395
-0.234,-1.032,-1.671,32.654,-268.860,1.770
-0.244,-0.949,-1.516,50.842,-225.708,7.324
-0.224,-0.958,-1.359,73.608,-200.439,9.277
-0.199,-1.007,-1.246,87.158,-185.059,7.996
-0.178,-1.019,-1.145,83.496,-173.828,6.348
-0.149,-1.061,-1.061,62.866,-163.757,6.958
-0.308,-1.067,-1.217,34.729,-151.550,10.376
-0.574,-1.464,-1.783,4.639,-92.651,7.446
-0.650,-1.128,-1.954,-44.800,12.756,7.385
-0.384,-0.704,-1.400,-64.209,50.049,15.564
-0.430,-0.762,-0.760,-34.302,30.457,19.897
-0.249,-0.811,-0.366,4.150,26.550,7.446
-0.244,-0.756,-0.119,5.981,8.850,8.606
-0.193,-0.791,-0.099,2.014,-3.601,14.099
-0.116,-0.935,-0.115,-3.296,-10.986,12.573
-0.062,-1.009,-0.076,-21.301,-17.395,3.357
-0.120,-1.042,-0.085,-48.645,-20.874,-6.592
-0.183,-1.032,-0.012,-77.698,-20.569,-11.475
-0.199,-0.962,0.014,-95.154,-12.634,-8.545
-0.205,-0.917,0.031,-95.642,-4.089,-7.751
-0.213,-0.908,0.074,-82.886,0.244,-8.606
-0.224,-0.914,0.096,-66.406,4.395,-8.972
-0.216,-0.921,0.103,-50.598,8.179,-8.728
-0.193,-0.945,0.088,-37.170,10.071,-9.155
-0.192,-0.968,0.052,-25.452,9.277,-9.521
-0.182,-0.969,0.004,-17.334,7.080,-9.460
-0.180,-0.987,-0.043,-13.794,4.639,-9.766
-0.175,-1.011,-0.094,-13.916,2.747,-8.728
-0.197,-1.037,-0.151,-16.052,3.357,-4.822
-0.199,-1.053,-0.224,-21.606,6.958,-0.916
-0.236,-1.036,-0.263,-29.846,13.916,2.991
-0.240,-1.011,-0.291,-38.818,24.048,5.493
-0.231,-0.996,-0.291,-44.434,34.729,6.165
-0.211,-0.977,-0.286,-45.654,44.128,5.981
-0.189,-0.966,-0.281,-42.297,52.551,6.165
-0.168,-0.971,-0.273,-36.133,59.082,6.348
-0.156,-0.985,-0.267,-27.832,63.477,6.409
-0.149,-1.010,-0.271,-18.799,67.139,5.798
-0.143,-1.033,-0.279,-11.047,70.496,4.150
-0.134,-1.055,-0.288,-5.493,73.486,0.671
-0.130,-1.075,-0.277,-1.709,74.707,-4.333
-0.139,-1.081,-0.245,1.465,74.463,-11.169
-0.151,-1.093,-0.216,5.493,72.754,-18.188
-0.162,-1.099,-0.153,6.775,71.167,-22.644
-0.161,-1.088,-0.111,5.493,72.144,-23.010
-0.164,-1.069,-0.086,2.502,76.111,-20.508
-0.157,-1.047,-0.068,-0.183,80.200,-16.235
-0.161,-1.032,-0.046,-2.014,82.458,-12.512
-0.164,-1.023,-0.027,-2.258,83.557,-9.216
-0.160,-1.020,-0.013,-2.014,84.778,-6.470
-0.147,-1.019,-0.003,-2.136,85.205,-4.089
-0.134,-1.029,0.002,-2.014,84.839,-2.319
-0.128,-1.033,0.001,-0.427,84.106,-1.221
-0.125,-1.049,0.008,0.854,83.496,-1.953
-0.167,-1.069,0.024,1.770,83.923,-5.310
-0.148,-1.053,0.010,1.709,88.257,-7.385
-0.145,-1.068,0.031,2.197,91.370,-11.841
-0.166,-1.073,0.074,4.700,92.957,-14.771
-0.155,-1.053,0.067,7.751,97.839,-15.747
-0.134,-1.033,0.076,10.986,101.196,-16.479
-0.122,-1.021,0.106,15.991,102.173,-17.700
-0.115,-1.020,0.132,20.142,103.333,-18.982
-0.114,-1.015,0.176,20.996,105.896,-19.714
-0.098,-0.998,0.219,18.494,108.582,-20.020
-0.076,-0.968,0.277,15.442,110.962,-19.165
-0.063,-0.930,0.334,11.292,112.000,-17.822
-0.046,-0.895,0.388,6.653,111.755,-15.503
-0.036,-0.874,0.435,2.808,110.352,-11.963
-0.061,-0.862,0.481,0.366,108.582,-8.606
-0.069,-0.881,0.520,-1.831,106.873,-6.531
-0.047,-0.887,0.555,-4.028,105.347,-5.798
-0.028,-0.892,0.585,-5.920,102.600,-6.042
-0.030,-0.891,0.609,-7.324,97.351,-6.592
-0.028,-0.875,0.626,-7.690,90.332,-7.629
-0.029,-0.865,0.636,-6.836,82.581,-9.399
-0.029,-0.857,0.640,-4.639,74.524,-11.047
-0.038,-0.846,0.633,-1.404,67.017,-11.841
-0.054,-0.834,0.622,0.549,60.913,-12.390
-0.067,-0.822,0.609,3.113,55.298,-12.024
-0.076,-0.812,0.599,6.897,50.171,-11.108
-0.090,-0.810,0.587,11.414,45.349,-9.766
-0.104,-0.815,0.570,15.869,41.016,-8.362
-0.113,-0.821,0.558,19.714,37.659,-6.775
-0.118,-0.831,0.548,20.996,34.912,-5.554
-0.124,-0.834,0.539,20.264,32.837,-4.272
-0.131,-0.845,0.528,18.433,30.823,-2.747
-0.135,-0.850,0.512,15.930,28.320,-1.099
-0.139,-0.851,0.492,13.062,25.879,0.183
-0.143,-0.856,0.469,11.047,23.376,1.404
-0.147,-0.863,0.446,9.094,21.118,1.831
-0.150,-0.875,0.426,7.812,19.653,1.648
-0.156,-0.889,0.409,6.836,18.982,1.099
-0.156,-0.905,0.393,6.042,17.639,-0.061
-0.156,-0.926,0.384,5.615,15.503,-1.831
-0.164,-0.943,0.381,5.310,13.245,-3.174
-0.173,-0.954,0.379,3.662,11.230,-4.395
-0.178,-0.959,0.376,0.793,9.766,-4.639
-0.177,-0.962,0.370,-1.770,8.362,-4.395
0.619,-0.480,1.724,2.502,172.424,-38.574
0.739,-0.487,1.898,12.024,140.869,-28.625
0.830,-0.535,1.998,20.142,98.694,-16.724
0.878,-0.602,2.043,25.208,46.692,-3.845
0.906,-0.704,2.015,24.353,-10.010,9.460
0.931,-0.802,1.909,15.808,-67.993,22.827
0.962,-0.874,1.708,1.404,-125.610,34.973
0.958,-0.869,1.441,-13.489,-178.833,47.363
0.914,-0.824,1.190,-23.376,-225.708,58.899
0.885,-0.804,0.941,-25.391,-264.160,66.895
0.842,-0.877,0.625,-20.996,-294.067,70.862
0.783,-0.945,0.318,-9.338,-319.031,74.219
0.712,-0.993,-0.007,6.836,-336.304,78.857
0.618,-1.010,-0.246,26.062,-345.154,85.754
0.565,-1.042,-0.396,46.387,-347.656,92.041
0.555,-1.119,-0.473,65.735,-345.032,96.619
0.513,-1.203,-0.504,77.209,-339.600,97.412
0.473,-1.337,-0.603,76.843,-335.510,93.262
0.427,-1.475,-0.783,69.397,-337.952,83.557
0.334,-1.572,-1.096,59.937,-344.238,68.054
0.181,-1.583,-1.397,50.842,-346.985,46.814
0.047,-1.473,-1.576,46.082,-342.346,24.902
-0.048,-1.327,-1.626,49.561,-328.125,7.385
-0.084,-1.214,-1.591,62.927,-309.631,-3.784
-0.121,-1.138,-1.563,82.214,-290.588,-11.108
-0.127,-1.052,-1.521,96.130,-272.644,-16.724
-0.089,-1.070,-1.534,96.985,-254.944,-21.423
-0.091,-1.104,-1.699,88.745,-236.023,-26.184
-0.656,-1.212,-2.520,74.585,-190.491,-33.142
-0.484,-0.992,-2.443,47.974,-91.187,-29.968
-0.618,-0.811,-2.261,13.733,-33.569,-25.269
-0.316,-0.601,-1.532,33.752,-28.809,-21.545
-0.213,-0.602,-1.276,84.778,-41.199,-20.691
-0.132,-1.012,-1.202,93.262,-21.057,-35.583
-0.417,-0.940,-0.988,55.237,-11.536,-33.447
-0.175,-0.833,-0.940,6.348,16.663,-10.864
-0.061,-0.724,-0.889,-23.926,43.579,7.874
0.050,-0.711,-0.818,-36.621,50.659,15.442
0.054,-0.827,-0.658,-41.565,46.021,13.123
0.011,-0.929,-0.573,-44.739,43.884,11.841
-0.054,-0.973,-0.484,-48.950,47.852,15.930
-0.077,-0.997,-0.406,-54.138,57.678,20.569
-0.078,-1.008,-0.333,-57.861,70.068,23.132
-0.070,-1.001,-0.262,-57.129,81.482,24.658
-0.076,-1.001,-0.195,-53.406,90.271,25.818
-0.084,-1.000,-0.131,-47.180,96.619,26.855
-0.098,-0.995,-0.068,-39.673,100.830,28.137
-0.124,-0.987,-0.013,-31.555,103.455,29.663
-0.139,-0.989,0.042,-25.879,105.957,30.945
-0.143,-1.012,0.101,-21.912,108.337,32.776
-0.131,-1.048,0.136,-19.714,110.840,34.912
-0.127,-1.086,0.170,-18.372,112.122,36.499
-0.127,-1.115,0.191,-18.372,114.075,36.133
-0.122,-1.149,0.206,-19.165,117.126,33.203
-0.113,-1.174,0.224,-20.264,120.850,28.015
-0.119,-1.178,0.243,-19.836,124.146,22.461
-0.120,-1.166,0.256,-19.592,128.235,15.991
-0.136,-1.142,0.273,-19.592,133.423,8.728
-0.112,-1.095,0.285,-19.958,138.977,1.831
-0.082,-1.045,0.305,-18.860,142.029,-4.333
-0.101,-1.016,0.329,-14.771,143.311,-11.536
-0.111,-0.957,0.316,-9.460,146.057,-14.038
-0.086,-0.919,0.348,-7.202,147.339,-13.062
-0.083,-0.885,0.391,-5.249,147.217,-7.690
-0.093,-0.871,0.414,-5.188,150.574,-0.305
-0.095,-0.878,0.390,-6.104,159.241,6.226
-0.084,-0.912,0.357,-8.057,168.823,7.324
-0.059,-0.952,0.345,-9.705,173.523,-0.427
-0.020,-0.964,0.406,-9.644,170.166,-15.625
0.001,-0.993,0.470,-7.263,159.607,-33.508
0.001,-1.012,0.540,-7.812,144.165,-46.875
-0.009,-0.995,0.616,-14.038,130.005,-50.964
-0.010,-0.947,0.644,-23.071,120.361,-50.293
-0.017,-0.876,0.645,-29.541,109.436,-47.363
-0.036,-0.819,0.640,-35.034,95.276,-43.823
-0.056,-0.773,0.632,-38.208,80.200,-38.757
-0.079,-0.743,0.617,-36.926,66.406,-33.020
-0.097,-0.730,0.596,-32.166,54.749,-27.893
-0.122,-0.733,0.556,-25.757,45.715,-24.048
-0.152,-0.757,0.505,-17.761,38.635,-20.935
-0.172,-0.778,0.459,-10.864,34.302,-19.226
-0.184,-0.802,0.430,-5.371,32.715,-18.066
-0.183,-0.833,0.414,-1.404,32.593,-17.334
-0.177,-0.856,0.413,0.427,32.715,-17.456
-0.167,-0.871,0.423,1.099,32.166,-17.273
-0.161,-0.885,0.433,2.136,30.029,-15.625
-0.163,-0.887,0.442,3.052,26.062,-13.245
-0.164,-0.892,0.446,3.662,21.240,-10.376
-0.165,-0.899,0.444,4.089,15.686,-7.324
-0.171,-0.904,0.443,4.211,9.705,-4.089
-0.174,-0.913,0.437,3.967,4.272,-1.343
-0.180,-0.934,0.416,3.357,0.122,2.014
-0.195,-0.952,0.385,1.709,-2.319,4.150
-0.201,-0.961,0.359,-0.305,-2.991,5.615
-0.196,-0.959,0.346,-2.075,-2.808,6.165
-0.185,-0.948,0.345,-2.930,-3.235,6.226
-0.177,-0.952,0.329,-2.380,-4.395,6.348
-0.178,-0.968,0.310,-0.549,-6.531,6.531
-0.190,-0.964,0.285,0.916,-8.545,6.775
-0.200,-0.955,0.268,1.221,-9.644,6.897
-0.202,-0.941,0.259,0.366,-10.315,6.897
-0.193,-0.931,0.245,-0.061,-10.742,7.080
-0.180,-0.948,0.228,-0.122,-11.047,7.385
-0.184,-0.969,0.207,0.122,-10.986,8.118
-0.202,-0.973,0.195,-1.282,-10.315,8.301
-0.211,-0.967,0.197,-3.845,-8.789,7.446
-0.210,-0.956,0.204,-6.104,-6.897,5.371
-0.210,-0.943,0.212,-7.507,-5.005,2.441
-0.203,-0.932,0.221,-8.484,-3.845,-0.488
-0.190,-0.928,0.234,-7.812,-3.784,-2.136
-0.184,-0.947,0.233,-7.080,-4.089,-2.991
-0.187,-0.958,0.228,-5.981,-4.761,-3.662
-0.193,-0.960,0.224,-5.493,-5.249,-4.089
-0.196,-0.959,0.224,-5.249,-5.554,-4.639
-0.195,-0.961,0.220,-4.333,-6.104,-5.249
-0.196,-0.974,0.214,-2.625,-6.592,-5.310
-0.200,-0.972,0.210,-2.075,-6.653,-5.554
-0.203,-0.966,0.210,-2.014,-6.653,-5.798
-0.203,-0.962,0.212,-2.197,-6.409,-6.042
-0.262,-1.503,-1.416,1.465,-301.025,50.476
-0.430,-1.436,-1.701,-11.841,-294.678,39.368
-0.743,-1.067,-2.105,-9.766,-278.076,30.457
-1.073,0.320,-4.000,162.964,-257.690,0.366
-2.523,-1.389,-2.288,574.341,-265.320,-72.876
-1.632,-2.132,-3.228,434.387,-21.851,-67.139
-0.452,-1.654,-2.290,167.542,75.378,-42.053
-0.229,-1.594,-1.407,-26.733,38.330,-38.452
-0.413,-1.488,-1.153,-116.089,-11.108,-30.823
-0.486,-0.959,-1.431,-170.837,-26.184,-4.333
-0.445,-0.670,-1.435,-205.627,-17.700,17.578
-0.443,-0.569,-1.304,-204.895,2.197,36.438
-0.420,-0.486,-1.170,-174.133,31.067,48.157
-0.295,-0.487,-0.981,-122.803,49.866,46.509
-0.209,-0.572,-0.754,-69.580,57.373,35.217
-0.142,-0.680,-0.571,-27.710,60.059,21.667
-0.088,-0.771,-0.440,-1.099,61.829,11.292
-0.043,-0.834,-0.344,12.390,62.256,6.042
0.004,-0.878,-0.249,15.503,60.791,2.991
0.048,-0.925,-0.153,12.207,58.044,1.404
0.073,-0.970,-0.085,5.615,56.763,1.953
0.083,-1.003,-0.022,-2.808,57.495,5.371
0.076,-1.001,0.042,-13.428,60.547,10.864
0.051,-0.987,0.111,-23.071,65.613,17.883
0.007,-0.956,0.194,-31.067,72.205,24.597
-0.007,-0.928,0.256,-34.058,79.346,29.724
-0.025,-0.910,0.327,-31.067,85.144,33.203
-0.028,-0.914,0.396,-23.315,89.478,36.194
-0.026,-0.927,0.455,-14.709,93.140,39.551
-0.013,-0.954,0.510,-7.141,96.008,43.396
0.000,-0.993,0.566,-2.686,97.290,45.593
0.015,-1.026,0.609,-1.831,97.412,46.448
0.030,-1.057,0.641,-4.333,96.436,45.898
0.037,-1.094,0.668,-7.141,93.384,43.762
0.018,-1.112,0.680,-10.010,90.271,38.513
-0.018,-1.101,0.688,-11.902,88.257,30.334
-0.061,-1.057,0.705,-13.855,87.646,18.555
-0.075,-0.979,0.733,-16.785,89.050,6.836
-0.068,-0.873,0.769,-19.287,90.942,-1.160
-0.058,-0.785,0.812,-16.968,91.858,-4.028
-0.035,-0.708,0.819,-8.179,90.759,-3.174
-0.079,-0.687,0.823,2.625,88.135,-1.343
-0.065,-0.699,0.797,11.841,86.426,1.953
-0.074,-0.705,0.799,18.677,81.665,4.639
-0.099,-0.723,0.770,24.475,78.186,6.714
-0.110,-0.769,0.687,27.344,78.552,5.127
-0.093,-0.814,0.633,26.611,76.599,-0.671
-0.068,-0.844,0.603,25.085,70.740,-9.888
-0.071,-0.870,0.592,22.156,60.730,-23.437
-0.095,-0.881,0.599,16.418,48.462,-33.752
-0.106,-0.874,0.609,9.094,38.513,-35.950
-0.118,-0.861,0.603,3.784,31.982,-32.532
-0.126,-0.849,0.585,0.671,26.672,-27.649
-0.137,-0.836,0.553,-0.305,21.179,-21.423
-0.155,-0.843,0.514,-0.916,15.869,-15.686
-0.168,-0.858,0.480,-1.160,10.193,-10.742
-0.170,-0.898,0.441,-1.282,5.981,-6.348
-0.192,-0.928,0.404,-1.526,3.296,-4.211
-0.217,-0.947,0.374,-2.869,2.808,-4.395
-0.225,-0.953,0.355,-4.333,4.639,-5.005
-0.216,-0.963,0.349,-5.554,8.362,-5.859
-0.198,-0.961,0.353,-5.371,11.902,-6.348
-0.180,-0.958,0.357,-4.333,14.404,-6.042
-0.163,-0.957,0.368,-1.648,14.832,-5.188
-0.156,-0.964,0.378,2.319,13.672,-4.578
-0.148,-0.973,0.375,7.629,11.536,-3.052
-0.134,-0.971,0.369,12.207,8.423,-2.014
-0.131,-0.967,0.358,15.259,4.700,-0.732
-0.139,-0.962,0.348,17.578,0.549,0.732
-0.150,-0.964,0.331,19.897,-2.991,1.465
-0.151,-0.970,0.302,21.729,-5.737,1.160
-0.149,-0.979,0.274,22.888,-7.996,1.343
-0.161,-0.969,0.265,22.339,-9.583,1.587
-0.165,-0.956,0.236,21.545,-10.071,3.235
-0.168,-0.956,0.214,18.982,-9.583,5.249
-0.164,-0.943,0.183,17.700,-9.155,8.179
-0.173,-0.928,0.172,18.921,-9.155,11.353
-0.199,-0.923,0.199,19.165,-8.545,16.418
-0.201,-0.925,0.176,13.000,-3.601,22.583
-0.161,-0.915,0.126,6.104,1.770,30.334
-0.157,-0.860,0.108,5.920,1.465,38.513
-0.156,-0.819,0.136,12.695,-2.136,44.495
-0.134,-0.808,0.167,19.348,-7.141,49.255
-0.103,-0.819,0.180,20.691,-8.423,54.871
-0.113,-0.878,0.186,19.897,-9.827,59.082
-0.123,-0.930,0.190,18.799,-11.414,59.875
-0.114,-0.955,0.154,18.372,-11.230,57.434
-0.103,-1.005,0.124,17.029,-9.705,52.551
-0.100,-1.051,0.094,14.038,-7.935,46.631
-0.102,-1.057,0.059,11.841,-5.310,40.649
-0.108,-1.042,0.060,11.414,-2.441,34.241
-0.105,-1.020,0.086,12.390,0.854,29.602
-0.092,-1.023,0.137,12.756,5.554,27.466
-0.069,-1.035,0.186,8.667,11.353,27.405
-0.048,-1.040,0.228,1.465,15.625,28.870
-0.024,-1.049,0.276,-3.540,15.686,30.579
-0.010,-1.066,0.286,-8.057,12.085,30.762
-0.010,-1.092,0.272,-12.329,6.958,29.846
-0.021,-1.121,0.251,-17.883,2.136,27.588
-0.022,-1.133,0.233,-25.574,0.000,24.536
-0.021,-1.085,0.204,-32.837,0.610,22.583
-0.019,-1.042,0.191,-33.997,1.282,21.606
-0.014,-1.020,0.185,-29.724,1.160,20.508
-0.003,-1.008,0.169,-22.705,0.977,19.226
-0.011,-0.989,0.158,-14.404,1.038,17.517
-0.045,-0.963,0.169,-4.700,1.465,15.015
-0.051,-0.958,0.172,6.348,1.709,11.536
-0.033,-0.969,0.181,17.029,1.770,8.484
-0.005,-0.993,0.172,21.729,2.075,6.897
0.001,-1.011,0.168,18.616,2.502,7.629
-0.019,-1.003,0.164,10.925,2.625,9.644
-0.021,-0.985,0.146,2.502,2.808,11.169
-0.031,-0.971,0.163,-3.052,1.831,12.329
-0.040,-0.966,0.174,-6.653,2.625,14.709
-0.039,-0.994,0.191,-9.033,4.395,15.259
-0.016,-1.027,0.215,-9.338,5.371,15.198
0.002,-1.065,0.236,-8.911,5.737,14.221
0.013,-1.097,0.251,-9.521,5.188,12.207
0.016,-1.120,0.264,-10.803,3.418,9.399
-1.023,-2.464,1.974,-13.367,26.978,151.428
0.339,-0.388,1.027,-76.599,54.321,61.707
-0.381,-0.450,0.923,-77.087,9.277,26.611
-0.767,-0.371,1.010,8.545,-29.846,-30.579
-0.771,-0.236,0.905,45.105,-30.029,-68.604
-0.653,-0.247,0.855,54.443,-25.269,-75.439
-0.616,-0.257,0.999,64.819,-14.526,-68.481
-0.102,-1.115,0.778,67.932,-13.123,-63.599
-0.270,-0.884,1.069,72.876,-17.517,-18.982
-0.416,-0.819,1.156,49.561,-2.319,5.615
-0.433,-0.903,1.187,9.949,15.259,-2.869
-0.351,-0.893,1.022,-22.400,23.804,-14.038
-0.328,-0.805,1.002,-39.917,23.926,-18.494
-0.378,-0.744,1.016,-49.561,23.804,-22.278
-0.397,-0.713,1.013,-58.105,25.330,-33.630
-0.345,-0.642,0.957,-65.063,24.963,-50.659
-0.302,-0.550,0.951,-67.566,22.827,-67.505
-0.258,-0.434,0.936,-63.965,18.860,-80.994
-0.194,-0.328,0.895,-57.312,14.465,-91.919
-0.138,-0.226,0.883,-51.086,11.963,-100.037
-0.089,-0.095,0.883,-46.265,9.827,-104.980
-0.051,-0.001,0.900,-43.274,8.301,-108.948
0.010,0.074,0.908,-44.128,7.629,-111.694
0.070,0.146,0.875,-46.570,6.470,-112.366
0.097,0.222,0.827,-47.913,5.737,-110.657
0.071,0.308,0.847,-47.180,6.470,-107.910
0.070,0.359,0.792,-46.204,9.033,-106.506
0.077,0.407,0.741,-40.161,9.338,-103.210
0.041,0.406,0.838,-28.137,5.066,-98.145
0.021,0.427,0.868,-22.400,4.639,-94.666
0.068,0.460,0.780,-24.048,7.812,-93.445
0.069,0.492,0.816,-22.034,8.606,-91.980
0.063,0.546,0.842,-19.409,11.108,-90.820
0.099,0.609,0.872,-18.188,16.052,-92.102
0.137,0.684,0.878,-18.799,18.982,-93.933
0.169,0.756,0.863,-18.127,17.578,-93.567
0.170,0.782,0.919,-15.137,13.306,-90.637
0.149,0.814,0.923,-17.395,10.925,-85.632
0.147,0.857,0.885,-25.696,11.169,-79.407
0.166,0.883,0.813,-34.546,17.517,-72.754
0.173,0.987,0.791,-40.161,15.503,-64.514
0.157,1.008,0.765,-34.424,11.597,-57.617
0.143,1.005,0.772,-19.836,6.592,-51.819
0.133,0.981,0.800,-4.211,-0.916,-46.448
0.089,0.939,0.817,11.841,-10.742,-40.344
0.059,0.888,0.805,22.888,-19.836,-35.278
0.008,0.851,0.832,29.358,-25.940,-31.189
-0.022,0.827,0.879,30.884,-27.466,-28.687
0.006,0.825,0.902,24.719,-25.513,-26.306
0.001,0.813,0.891,17.151,-22.705,-21.912
0.006,0.811,0.862,9.766,-19.409,-16.479
-0.008,0.809,0.819,5.432,-18.188,-10.742
-0.078,0.766,0.775,6.226,-16.235,-6.409
-0.064,0.692,0.711,7.874,-9.766,-4.700
-0.071,0.676,0.745,12.573,-11.230,-3.967
-0.055,0.615,0.775,16.968,-12.207,-2.808
-0.044,0.590,0.742,17.700,-9.216,0.244
-0.060,0.530,0.773,19.348,-9.033,4.578
-0.065,0.486,0.784,17.883,-7.812,8.240
-0.072,0.437,0.791,14.099,-5.676,11.353
-0.086,0.396,0.835,10.559,-5.188,13.245
-0.090,0.367,0.848,5.615,-4.150,14.343
-0.097,0.342,0.844,1.831,-2.808,15.747
-0.106,0.317,0.850,0.977,-1.648,17.273
-0.125,0.278,0.865,2.441,-0.122,18.127
-0.150,0.243,0.883,4.028,0.671,18.005
-0.151,0.223,0.896,4.944,0.549,16.357
-0.141,0.213,0.907,5.188,0.244,13.916
-0.128,0.221,0.910,5.371,-0.488,11.780
-0.120,0.236,0.914,5.615,-1.770,10.071
-0.113,0.249,0.937,6.165,-2.563,8.545
-0.095,0.262,0.939,6.592,-3.235,7.263
-0.096,0.249,0.948,6.653,-5.127,6.409
-0.106,0.252,0.914,5.798,-5.127,5.615
-0.108,0.256,0.919,6.348,-3.723,4.639
-0.111,0.259,0.922,7.141,-3.784,3.479
-0.113,0.280,0.904,6.897,-2.686,2.441
-0.118,0.294,0.911,8.240,-2.319,2.075
-0.115,0.293,0.918,10.193,-2.625,2.380
-0.123,0.286,0.917,10.376,-2.686,3.174
-0.128,0.280,0.913,10.254,-2.625,4.089
-0.125,0.271,0.901,10.559,-3.784,4.333
-0.129,0.267,0.898,10.742,-3.906,4.272
-0.133,0.273,0.896,10.742,-3.235,4.211
-0.131,0.278,0.887,9.827,-2.563,3.784
-0.126,0.283,0.892,7.935,-2.075,2.625
-0.122,0.288,0.909,6.714,-1.831,2.136
-0.119,0.278,0.916,3.845,-1.648,2.136
-0.121,0.261,0.921,1.038,-0.671,3.174
-0.130,0.235,0.925,-0.305,-0.122,4.517
-0.136,0.216,0.936,-1.343,-0.061,4.761
-0.145,0.213,0.921,-3.662,0.366,3.479
-0.152,0.231,0.892,-4.456,-0.549,1.770
-0.154,0.242,0.875,-2.930,-2.197,-0.610
-0.139,0.264,0.893,-0.854,-2.930,-2.808
-0.121,0.282,0.912,0.427,-2.563,-4.028
-0.114,0.295,0.921,0.305,-2.502,-4.333
-0.112,0.304,0.920,-1.099,-3.601,-4.517
-0.107,0.324,0.898,-2.991,-3.601,-4.150
-0.107,0.338,0.882,-4.456,-2.136,-2.869
-0.116,0.344,0.877,-4.150,-0.305,-1.404
-0.119,0.343,0.882,-3.418,0.854,-0.366
-0.116,0.336,0.886,-2.319,1.709,-0.183
-0.118,0.333,0.892,-0.793,2.136,-0.366
-0.124,0.334,0.901,1.038,1.587,-0.366
-0.118,0.336,0.904,2.075,0.854,-0.977
-0.119,0.340,0.907,2.014,0.305,-1.404
-0.124,0.341,0.907,1.160,0.122,-1.526
-0.109,0.346,0.917,-0.732,0.793,-2.014
-0.101,0.357,0.917,-3.845,1.831,-2.197
-0.103,0.366,0.906,-5.859,2.014,-0.916
-0.108,0.370,0.896,-6.409,1.160,0.549
-0.110,0.374,0.874,-4.822,-0.305,1.221
-0.107,0.369,0.885,-1.648,-1.465,1.892
-0.105,0.361,0.904,1.343,-1.404,2.686
-0.111,0.351,0.919,2.869,-1.343,3.235
-0.115,0.335,0.915,2.625,-1.404,3.967
-0.122,0.316,0.912,1.709,-0.244,4.761
-0.121,0.305,0.911,0.610,1.526,4.639
0.873,-1.777,0.170,86.914,-4.639,168.884
-2.339,-1.688,1.795,101.013,-35.095,233.521
-0.585,-1.660,0.936,-34.607,24.170,88.867
-0.219,-0.238,1.450,-71.228,25.635,-22.522
-1.237,-0.902,0.783,-5.066,-0.671,-42.542
-1.274,0.060,1.206,23.743,-28.076,-78.613
-0.524,-0.387,1.038,6.653,-18.311,-109.924
-0.089,-0.645,1.101,11.902,-7.996,-94.910
-0.166,-1.052,0.807,8.850,-3.113,-56.763
-0.250,-1.014,0.984,20.386,-9.399,-29.114
-0.318,-0.974,1.232,11.719,-0.671,-15.198
-0.308,-0.799,1.072,-18.738,20.447,-17.822
-0.256,-0.730,1.020,-33.936,27.161,-26.306
-0.213,-0.633,0.960,-33.386,22.400,-31.616
-0.274,-0.573,0.972,-21.790,3.723,-37.476
-0.284,-0.576,0.943,-13.184,-10.742,-46.204
-0.234,-0.563,0.909,-15.381,-8.972,-57.800
-0.205,-0.447,0.885,-21.912,-2.808,-69.946
-0.152,-0.327,0.856,-27.100,1.221,-79.895
-0.102,-0.191,0.815,-29.419,1.587,-87.402
-0.076,-0.075,0.822,-28.137,0.366,-91.980
-0.036,0.036,0.821,-27.771,0.549,-95.215
0.004,0.114,0.824,-29.541,3.967,-95.947
0.029,0.177,0.827,-33.630,8.301,-94.666
0.028,0.224,0.805,-39.917,14.160,-92.834
0.047,0.288,0.773,-44.739,19.226,-91.797
0.038,0.336,0.761,-43.945,20.447,-90.515
0.036,0.367,0.730,-38.147,18.738,-89.600
0.034,0.370,0.745,-28.503,14.404,-89.233
0.026,0.375,0.777,-19.653,10.437,-89.355
0.024,0.391,0.802,-13.794,8.606,-90.698
0.020,0.428,0.822,-10.803,7.935,-93.628
0.023,0.476,0.839,-9.888,7.019,-96.130
0.018,0.512,0.853,-10.498,5.737,-97.290
0.015,0.553,0.868,-12.329,6.470,-97.839
0.027,0.597,0.893,-13.855,6.836,-98.083
0.036,0.637,0.912,-13.611,7.019,-96.497
0.069,0.682,0.892,-13.794,10.742,-94.299
0.091,0.745,0.940,-14.587,9.888,-89.722
0.086,0.780,0.989,-12.634,3.601,-84.656
0.083,0.812,0.997,-11.719,3.479,-80.261
0.096,0.842,1.000,-11.108,3.052,-75.134
0.084,0.855,1.001,-7.507,-0.244,-67.810
0.073,0.852,1.015,-4.333,-4.578,-60.303
0.039,0.832,0.998,-2.502,-8.545,-52.979
0.027,0.810,0.982,-1.892,-10.193,-45.959
0.015,0.785,0.974,-1.587,-11.292,-39.551
-0.029,0.753,0.958,-2.686,-11.414,-33.081
-0.022,0.736,0.950,-4.639,-10.010,-26.428
-0.030,0.703,0.895,-6.226,-6.165,-20.691
-0.030,0.688,0.887,-8.911,-3.174,-15.259
-0.039,0.659,0.878,-8.667,-6.958,-9.399
-0.053,0.618,0.857,-6.104,-9.155,-4.578
-0.060,0.576,0.834,-3.479,-8.789,-1.770
-0.068,0.540,0.813,-0.366,-9.338,0.977
-0.084,0.513,0.813,2.380,-9.888,3.357
-0.101,0.479,0.820,2.747,-8.545,5.859
-0.109,0.444,0.832,1.038,-6.897,7.568
-0.115,0.422,0.822,-1.648,-5.493,9.094
-0.132,0.405,0.810,-3.662,-3.723,10.803
-0.132,0.388,0.809,-3.845,-1.587,13.062
-0.136,0.367,0.823,-3.235,1.282,15.198
-0.138,0.340,0.844,-1.465,3.540,17.273
-0.138,0.311,0.863,0.427,4.333,18.555
-0.152,0.277,0.876,3.479,3.113,19.226
-0.154,0.248,0.885,6.287,1.587,19.043
-0.163,0.215,0.896,9.033,0.793,18.799
-0.176,0.189,0.894,10.010,0.610,17.578
-0.180,0.168,0.894,8.972,0.610,15.381
-0.170,0.163,0.909,6.836,1.770,12.939
-0.157,0.172,0.914,4.028,2.808,10.925
-0.151,0.186,0.911,1.770,2.563,9.705
-0.151,0.191,0.908,1.160,1.953,9.460
-0.148,0.193,0.896,1.587,2.136,9.155
-0.158,0.178,0.894,3.296,1.953,8.972
-0.163,0.169,0.895,5.310,1.831,8.179
-0.159,0.160,0.902,6.714,1.892,6.409
-0.154,0.163,0.919,7.324,2.197,4.333
-0.152,0.178,0.937,6.958,2.441,3.357
-0.143,0.198,0.947,4.333,3.113,2.502
-0.128,0.222,0.967,0.793,3.784,2.258
-0.120,0.240,0.967,-1.770,3.479,2.930
-0.118,0.245,0.961,-4.028,2.869,4.272
-0.118,0.246,0.951,-5.066,2.991,5.310
-0.126,0.239,0.944,-4.456,2.563,6.531
-0.135,0.234,0.941,-3.479,1.709,6.348
-0.133,0.235,0.935,-2.197,1.221,5.310
-0.133,0.239,0.930,-0.916,1.160,4.089
-0.132,0.245,0.934,0.061,0.732,2.808
-0.129,0.255,0.943,0.366,-0.061,1.770
-0.127,0.264,0.935,0.549,-0.977,1.587
-0.134,0.262,0.924,0.244,-1.892,1.648
-0.139,0.260,0.907,-0.183,-1.892,1.892
-0.145,0.256,0.903,-0.244,-1.160,2.075
-0.155,0.237,0.905,0.000,-1.282,1.709
-0.161,0.226,0.899,0.061,-1.526,0.244
-0.153,0.229,0.889,0.427,-1.709,-1.526
-0.145,0.244,0.892,0.854,-1.892,-2.625
-0.140,0.261,0.897,1.221,-2.197,-2.991
-0.140,0.275,0.882,1.770,-2.014,-2.930
-0.142,0.275,0.884,2.747,-1.648,-2.625
-0.141,0.276,0.882,3.601,-1.160,-2.197
-0.142,0.272,0.888,4.822,-0.916,-1.343
-0.149,0.263,0.905,5.005,-0.732,-0.549
-0.148,0.261,0.907,3.723,-0.244,0.000
-0.145,0.265,0.906,1.709,0.549,0.366
-0.143,0.264,0.898,0.732,1.099,0.671
-0.147,0.261,0.905,1.160,1.404,0.671
-0.141,0.252,0.919,2.441,1.587,0.305
-0.140,0.245,0.928,2.258,1.465,-0.488
-0.138,0.255,0.926,0.977,1.465,-1.343
-0.130,0.273,0.922,0.000,1.343,-1.831
-0.125,0.291,0.919,-0.305,0.854,-1.770
-0.125,0.302,0.912,0.366,0.000,-0.916
-0.126,0.297,0.917,2.014,-0.366,0.732
-0.129,0.283,0.919,3.967,-0.305,2.075
-0.134,0.265,0.927,4.944,-0.427,2.869
-0.142,0.253,0.926,4.944,-0.427,3.174
-0.154,0.240,0.920,4.089,-0.244,2.747
-1.126,-0.347,0.356,0.305,10.376,70.190
-0.108,-0.499,1.313,31.738,2.258,92.529
-0.285,-1.177,0.820,4.272,-4.944,82.825
-0.901,-0.599,0.955,-4.089,5.615,6.104
-0.840,-0.519,0.950,8.423,-22.034,-48.950
-0.620,-1.020,1.033,15.015,-30.029,-71.106
-0.517,-0.915,0.941,12.146,-22.034,-47.791
-0.233,-0.865,0.855,5.920,-9.033,-34.058
-0.349,-0.795,0.908,-14.038,3.906,-26.550
-0.424,-0.680,0.926,-29.236,12.817,-22.217
-0.336,-0.577,0.906,-38.025,18.738,-25.452
-0.317,-0.545,0.866,-42.542,20.691,-27.954
-0.345,-0.510,0.829,-38.940,18.555,-29.480
-0.342,-0.446,0.833,-30.396,15.808,-35.034
-0.309,-0.404,0.852,-22.278,15.930,-44.128
-0.296,-0.376,0.872,-16.235,17.517,-53.894
-0.258,-0.331,0.879,-11.841,16.296,-63.232
-0.239,-0.265,0.889,-8.850,13.245,-71.472
-0.184,-0.194,0.885,-10.376,12.634,-77.698
-0.132,-0.147,0.896,-14.099,14.099,-81.238
-0.114,-0.092,0.881,-18.677,15.259,-83.191
-0.123,-0.050,0.847,-22.034,14.221,-86.121
-0.099,0.033,0.811,-25.879,12.817,-89.844
-0.068,0.120,0.808,-29.053,13.733,-91.064
-0.049,0.185,0.811,-29.846,15.808,-89.172
-0.042,0.225,0.813,-28.320,17.212,-85.327
-0.050,0.228,0.809,-25.574,18.127,-81.726
-0.080,0.214,0.801,-21.606,17.700,-78.857
-0.105,0.197,0.794,-20.081,18.372,-78.674
-0.086,0.200,0.795,-18.677,21.606,-80.139
-0.083,0.247,0.846,-15.808,24.475,-81.726
0.047,0.256,0.919,-11.963,25.085,-82.642
-0.023,0.208,0.925,-8.972,18.616,-80.872
-0.043,0.181,0.894,-10.437,14.465,-80.261
-0.027,0.214,0.948,-14.648,12.329,-82.214
-0.004,0.278,0.965,-20.203,10.010,-84.900
0.013,0.339,0.950,-28.809,10.498,-86.365
0.032,0.421,0.880,-32.349,12.695,-86.243
-0.022,0.478,0.859,-23.193,10.803,-86.426
-0.045,0.467,0.899,-8.789,6.714,-87.769
0.036,0.509,0.939,0.366,9.155,-91.003
0.074,0.573,0.988,4.639,3.662,-88.135
0.029,0.564,0.992,5.127,-3.357,-81.909
0.035,0.596,0.973,-0.427,-1.648,-75.317
0.039,0.628,0.953,-5.188,1.709,-67.810
0.017,0.624,0.979,-8.606,3.723,-59.631
0.006,0.595,0.987,-12.268,4.883,-52.612
-0.007,0.586,0.967,-13.428,3.113,-47.241
-0.004,0.580,0.957,-9.888,1.526,-44.434
0.004,0.570,0.970,-1.953,-2.319,-41.748
0.000,0.567,0.993,5.798,-7.263,-39.734
-0.005,0.570,1.004,8.667,-8.423,-38.086
0.001,0.558,0.976,10.864,-9.277,-36.621
-0.019,0.567,0.968,15.930,-11.597,-34.302
-0.026,0.532,0.956,17.761,-9.644,-31.555
-0.024,0.542,0.947,14.282,-11.230,-26.306
-0.050,0.521,0.949,10.193,-12.329,-20.264
-0.051,0.511,0.915,4.578,-7.568,-15.503
-0.038,0.499,0.932,0.122,-3.113,-11.047
-0.051,0.481,0.933,-2.014,-1.160,-5.737
-0.071,0.449,0.902,-4.089,-0.122,-2.258
-0.074,0.424,0.885,-3.723,0.183,0.000
-0.082,0.402,0.891,-0.854,-0.305,1.221
-0.095,0.365,0.905,1.282,-0.610,2.258
-0.091,0.344,0.911,1.953,-1.282,3.296
-0.097,0.334,0.918,1.343,-2.075,5.005
-0.099,0.317,0.913,0.122,-2.380,6.653
-0.110,0.294,0.906,-0.488,-2.258,8.850
-0.123,0.276,0.909,-0.122,-1.831,10.864
-0.125,0.258,0.918,0.549,-2.197,11.841
-0.124,0.245,0.932,0.488,-2.625,12.512
-0.134,0.222,0.924,0.427,-2.258,13.916
-0.150,0.182,0.901,1.648,-2.014,14.954
-0.155,0.147,0.885,4.150,-1.770,14.648
-0.158,0.118,0.896,7.141,-0.793,12.817
-0.160,0.106,0.929,8.240,0.305,10.071
-0.145,0.117,0.940,7.019,0.854,7.263
-0.132,0.122,0.957,5.859,-0.305,5.920
-0.136,0.132,0.958,2.991,-1.404,5.371
-0.142,0.146,0.937,0.366,-1.648,4.883
-0.141,0.147,0.928,-0.244,-2.319,4.089
-0.142,0.150,0.917,0.427,-2.747,3.723
-0.148,0.147,0.913,1.770,-2.502,3.296
-0.153,0.145,0.924,3.662,-1.770,2.869
-0.151,0.147,0.931,4.822,-1.221,1.831
-0.151,0.153,0.928,6.042,-1.282,0.610
-0.149,0.158,0.932,6.592,-1.282,-0.671
-0.145,0.164,0.939,6.042,-1.343,-1.221
-0.148,0.177,0.941,3.723,-1.160,-1.038
-0.144,0.188,0.936,0.977,-0.671,0.122
-0.145,0.189,0.927,-1.160,0.793,1.038
-0.144,0.189,0.915,-1.770,1.526,0.732
-0.142,0.190,0.910,-0.793,0.977,-0.061
-0.136,0.194,0.920,1.160,-0.122,-1.099
-0.135,0.201,0.920,2.136,-1.221,-2.014
-0.139,0.210,0.916,1.587,-1.770,-1.831
-0.135,0.222,0.906,0.183,-1.099,-1.770
-0.131,0.226,0.908,0.305,-0.977,-1.343
-0.127,0.234,0.921,0.427,-0.916,-0.305
-0.127,0.225,0.924,0.427,0.000,0.793
-0.147,0.198,0.932,0.671,0.488,1.221
-0.143,0.187,0.926,0.854,0.549,0.854
-0.141,0.194,0.946,0.549,0.305,0.427
-0.131,0.204,0.953,-0.305,0.366,0.610
-0.131,0.206,0.941,-1.587,0.305,1.099
-0.157,0.202,0.916,-2.502,0.427,1.587
-0.157,0.192,0.901,-2.319,1.038,0.366
-0.135,0.195,0.914,-0.549,1.404,-0.916
-0.126,0.206,0.939,1.038,1.038,-1.343
-0.123,0.211,0.932,1.770,0.610,-1.099
-0.120,0.215,0.921,2.808,-0.610,-0.549
-0.131,0.209,0.934,4.395,-1.953,0.549
-0.150,0.189,0.938,3.784,-1.892,1.282
-0.149,0.176,0.935,2.563,-0.732,1.221
-0.144,0.177,0.940,1.221,0.183,0.671
-0.139,0.190,0.948,0.000,0.366,0.488
-0.138,0.202,0.938,-1.099,0.244,0.610
-0.136,0.202,0.925,-1.587,0.000,0.793
-0.143,0.190,0.917,-1.160,-0.183,0.488
-0.438,-1.713,1.061,108.032,-28.015,120.178
-0.982,-1.332,0.970,94.604,-52.734,73.486
-0.633,-0.921,0.747,40.710,-10.193,-40.710
-0.411,-0.437,1.185,-57.190,32.837,-74.036
-0.524,-0.353,0.855,-75.073,33.630,-77.454
-0.244,-0.672,0.726,-21.545,12.756,-59.875
-0.352,-0.652,0.881,14.221,-12.939,-25.146
-0.425,-0.756,0.850,10.376,-16.846,0.366
-0.408,-0.786,0.891,-4.395,-4.700,13.855
-0.417,-0.771,0.961,-22.217,11.963,15.503
-0.415,-0.772,0.955,-40.833,25.391,8.850
-0.401,-0.785,0.921,-51.147,28.137,-1.160
-0.408,-0.765,0.923,-49.683,21.667,-12.756
-0.404,-0.726,0.927,-44.495,14.526,-28.015
-0.369,-0.669,0.912,-40.466,11.292,-44.250
-0.331,-0.602,0.897,-37.170,9.766,-58.533
-0.300,-0.539,0.903,-34.119,8.667,-69.092
-0.275,-0.473,0.902,-33.020,8.850,-77.393
-0.242,-0.402,0.885,-33.752,10.376,-85.388
-0.190,-0.322,0.861,-33.752,11.658,-92.834
-0.147,-0.233,0.871,-31.616,11.108,-98.999
-0.104,-0.142,0.879,-29.297,10.132,-103.699
-0.066,-0.061,0.879,-27.832,9.521,-105.713
-0.041,0.011,0.876,-27.161,9.705,-105.652
-0.026,0.069,0.871,-26.367,10.559,-104.736
-0.017,0.114,0.875,-25.513,10.620,-102.783
-0.019,0.143,0.868,-25.330,9.644,-99.487
-0.024,0.170,0.853,-26.428,9.644,-95.764
-0.042,0.171,0.863,-26.733,9.827,-91.431
-0.057,0.172,0.865,-28.076,11.902,-88.013
-0.054,0.184,0.839,-28.564,14.099,-87.524
-0.059,0.202,0.828,-26.123,11.841,-89.294
-0.067,0.217,0.829,-22.888,9.827,-91.492
-0.059,0.224,0.852,-21.057,8.850,-94.177
-0.053,0.239,0.872,-22.217,8.850,-96.375
-0.038,0.251,0.883,-26.123,9.277,-98.083
-0.026,0.278,0.876,-31.616,8.362,-98.877
0.003,0.337,0.841,-36.987,7.874,-99.304
-0.062,0.389,0.787,-36.316,7.812,-100.952
-0.002,0.435,0.797,-35.095,14.160,-104.004
0.033,0.531,0.851,-27.344,9.094,-106.506
0.022,0.578,0.904,-15.076,4.333,-107.788
0.059,0.622,0.932,-6.226,0.610,-108.093
0.096,0.662,0.961,-1.160,-1.892,-105.225
0.075,0.696,0.992,0.610,-3.906,-98.267
0.072,0.719,1.001,-3.845,-3.723,-89.722
0.058,0.730,1.000,-10.132,-4.761,-80.200
0.046,0.743,0.990,-16.357,-4.395,-71.411
0.026,0.744,0.962,-20.508,-3.540,-63.232
0.005,0.741,0.930,-21.851,-1.892,-56.396
-0.007,0.736,0.899,-19.836,-0.854,-50.964
-0.006,0.729,0.887,-14.954,-1.526,-46.753
-0.032,0.724,0.872,-6.348,-4.578,-42.664
-0.032,0.685,0.870,1.160,-2.991,-38.818
-0.015,0.685,0.896,3.967,-4.456,-33.936
-0.030,0.659,0.916,5.493,-9.399,-27.405
-0.044,0.631,0.889,4.395,-8.850,-21.057
-0.035,0.608,0.876,-0.549,-4.395,-15.503
-0.048,0.583,0.868,-4.456,-1.831,-8.850
-0.065,0.561,0.868,-8.484,-0.183,-3.418
-0.064,0.542,0.850,-11.230,1.282,0.122
-0.071,0.522,0.834,-10.193,1.343,2.563
-0.093,0.497,0.818,-6.042,0.610,4.333
-0.100,0.479,0.828,-1.587,0.000,4.761
-0.096,0.453,0.867,2.441,0.000,5.432
-0.109,0.413,0.899,4.822,-0.549,6.653
-0.113,0.382,0.910,4.028,-0.793,8.240
-0.115,0.363,0.906,2.075,-0.610,10.315
-0.130,0.340,0.911,0.732,-0.305,12.451
-0.137,0.317,0.897,-0.732,0.244,13.977
-0.147,0.298,0.894,-1.038,1.526,15.137
-0.152,0.284,0.887,-0.488,2.686,15.198
-0.148,0.264,0.894,2.014,2.686,14.404
-0.153,0.245,0.904,6.653,1.587,13.550
-0.170,0.215,0.909,11.963,-0.122,12.268
-0.163,0.186,0.909,15.747,-1.831,9.399
-0.159,0.166,0.917,17.578,-3.052,7.385
-0.164,0.156,0.929,16.113,-3.113,6.592
-0.169,0.152,0.943,11.353,-2.136,6.165
-0.161,0.150,0.935,4.456,-1.038,5.066
-0.157,0.162,0.913,-1.648,0.366,4.517
-0.162,0.176,0.898,-5.005,1.831,4.089
-0.161,0.185,0.892,-4.028,2.502,3.235
-0.155,0.194,0.892,-0.488,2.014,1.465
-0.150,0.203,0.907,3.967,0.488,-0.427
-0.149,0.210,0.924,7.507,-0.671,-1.343
-0.153,0.215,0.931,9.399,-0.977,-1.709
-0.164,0.208,0.926,10.559,-1.831,-2.136
-0.167,0.190,0.932,10.498,-2.441,-2.502
-0.159,0.192,0.943,6.409,-1.343,-2.869
-0.151,0.211,0.936,0.305,0.854,-2.869
-0.147,0.240,0.920,-4.150,2.380,-2.808
-0.141,0.264,0.901,-4.822,2.441,-3.174
-0.134,0.273,0.895,-1.892,1.038,-3.784
-0.134,0.277,0.908,2.441,-0.916,-3.540
-0.133,0.274,0.915,5.310,-1.831,-3.113
-0.135,0.274,0.921,6.287,-2.014,-2.869
-0.139,0.279,0.921,5.981,-2.075,-2.502
-0.143,0.283,0.920,4.700,-1.648,-2.136
-0.139,0.288,0.917,2.625,-0.854,-1.892
-0.140,0.277,0.925,0.916,-0.305,-0.854
-0.146,0.262,0.924,-1.465,0.244,0.366
-0.144,0.255,0.904,-3.784,1.160,0.977
-0.145,0.262,0.899,-4.395,2.258,0.549
-0.141,0.274,0.906,-3.052,2.075,-0.244
-0.137,0.291,0.899,-0.793,1.343,-1.404
-0.137,0.299,0.897,2.014,0.000,-1.648
-0.133,0.301,0.898,4.272,-0.549,-1.465
-0.138,0.294,0.913,5.798,-0.916,-0.610
-0.142,0.280,0.916,6.592,-1.343,0.854
-0.158,0.242,0.919,5.737,-1.953,2.502
-0.168,0.215,0.919,2.502,-1.282,2.747
-0.164,0.206,0.902,-0.305,0.427,2.136
-0.154,0.214,0.910,-1.953,1.404,0.488
-0.146,0.236,0.918,-2.075,1.343,-1.221
-0.134,0.257,0.916,-0.854,0.610,-2.502
-0.127,0.274,0.917,0.854,-0.305,-3.113
-0.128,0.286,0.916,2.686,-0.977,-3.113
-0.135,0.289,0.913,4.944,-1.343,-2.319
-0.484,-1.392,0.979,43.762,-15.747,104.858
-0.565,-1.520,0.970,40.283,-17.944,89.905
-0.472,-1.978,1.178,30.212,-17.456,70.923
-0.689,-2.105,1.138,21.240,-17.822,53.955
-0.740,-1.688,1.052,25.452,-15.320,34.241
-0.577,-1.092,1.105,6.348,-22.217,-5.432
-0.514,-1.232,1.081,-15.747,5.920,-31.799
-0.601,-1.383,0.923,-7.324,1.892,-24.902
-0.527,-1.151,0.948,5.493,-3.540,-27.588
-0.374,-1.074,0.996,-6.042,-0.366,-38.330
-0.405,-1.009,0.903,-38.330,9.155,-42.236
-0.399,-0.884,0.809,-51.941,17.029,-42.786
-0.370,-0.748,0.809,-52.612,20.142,-48.645
-0.299,-0.663,0.793,-51.758,22.095,-56.702
-0.232,-0.571,0.828,-45.532,21.606,-62.378
-0.177,-0.514,0.873,-41.626,19.714,-67.322
-0.154,-0.484,0.893,-43.396,16.357,-73.608
-0.147,-0.421,0.893,-48.767,12.939,-81.238
-0.125,-0.329,0.869,-56.091,11.414,-90.393
-0.088,-0.229,0.827,-62.683,11.780,-99.548
-0.065,-0.130,0.795,-67.444,14.160,-107.361
-0.038,-0.015,0.767,-67.993,16.846,-114.929
-0.003,0.085,0.765,-62.073,15.930,-122.925
0.020,0.181,0.788,-53.467,11.963,-129.028
0.042,0.266,0.794,-45.227,7.874,-131.958
0.061,0.317,0.795,-39.124,4.456,-130.798
0.059,0.338,0.789,-36.499,3.601,-127.014
0.054,0.377,0.779,-35.217,5.554,-122.620
0.051,0.410,0.769,-33.752,7.690,-118.896
0.047,0.448,0.772,-31.128,9.521,-115.845
0.040,0.466,0.795,-27.100,9.888,-112.854
0.039,0.475,0.821,-22.400,9.766,-109.314
-0.022,0.462,0.822,-18.433,9.277,-105.896
0.003,0.439,0.879,-15.076,7.996,-103.821
0.030,0.429,0.882,-15.137,11.169,-104.309
0.053,0.506,0.954,-21.240,8.118,-104.797
0.045,0.550,0.945,-26.367,3.540,-105.103
0.055,0.609,0.932,-28.259,5.005,-105.835
0.083,0.663,0.931,-28.076,6.531,-106.567
0.089,0.704,0.943,-23.132,3.174,-105.408
0.093,0.754,0.949,-18.677,-2.380,-103.271
0.092,0.784,0.961,-14.893,-7.812,-100.098
0.088,0.819,0.962,-11.963,-10.132,-95.215
0.081,0.830,0.968,-10.315,-9.644,-88.440
0.075,0.829,0.969,-10.925,-8.789,-81.055
0.075,0.836,0.969,-13.489,-7.935,-73.792
0.044,0.834,0.954,-14.954,-9.033,-65.552
0.031,0.793,0.908,-15.381,-7.446,-57.251
0.030,0.795,0.880,-16.724,-9.216,-49.194
0.001,0.793,0.839,-13.123,-13.000,-41.016
-0.021,0.776,0.830,-6.958,-11.902,-33.752
-0.026,0.735,0.840,-2.319,-8.301,-27.405
-0.041,0.693,0.860,0.793,-7.141,-22.583
-0.039,0.654,0.865,2.319,-7.874,-19.226
-0.039,0.611,0.851,1.465,-9.155,-16.602
-0.046,0.590,0.836,0.305,-9.521,-13.306
-0.051,0.578,0.828,-0.977,-8.118,-9.705
-0.058,0.564,0.833,-1.465,-5.920,-5.981
-0.065,0.530,0.851,-1.892,-4.822,-2.869
-0.077,0.497,0.852,-3.235,-4.639,-0.488
-0.085,0.484,0.832,-5.127,-4.883,1.526
-0.103,0.479,0.812,-4.822,-5.310,3.479
-0.122,0.453,0.816,-2.625,-5.188,5.188
-0.136,0.423,0.820,-0.793,-3.418,7.141
-0.150,0.390,0.828,-0.122,-2.319,8.484
-0.143,0.373,0.832,-0.061,-1.465,7.996
-0.132,0.370,0.849,-0.244,0.122,7.507
-0.125,0.363,0.867,0.488,1.282,8.362
-0.135,0.341,0.874,0.244,1.831,9.827
-0.144,0.315,0.875,-0.671,2.502,11.108
-0.150,0.292,0.875,-0.732,3.723,11.475
-0.146,0.277,0.884,-0.305,4.150,10.559
-0.141,0.270,0.887,1.221,3.052,9.583
-0.145,0.271,0.876,3.479,1.465,9.155
-0.148,0.264,0.873,6.104,0.977,8.423
-0.147,0.256,0.893,8.789,0.793,7.385
-0.147,0.254,0.908,9.338,0.549,6.531
-0.142,0.255,0.913,8.240,0.122,5.676
-0.137,0.251,0.921,6.592,-0.427,5.432
-0.145,0.239,0.928,4.333,-0.427,5.798
-0.146,0.234,0.927,0.854,0.366,5.371
-0.144,0.238,0.910,-1.587,1.221,4.150
-0.143,0.247,0.896,-2.380,1.892,2.808
-0.139,0.261,0.911,-1.465,2.014,1.404
-0.129,0.268,0.925,-0.305,1.648,0.305
-0.128,0.283,0.921,-0.427,1.587,0.061
-0.134,0.300,0.907,-0.732,1.038,0.061
-0.133,0.303,0.896,0.305,0.366,-0.183
-0.131,0.307,0.893,2.197,0.000,-0.549
-0.130,0.309,0.905,4.150,-0.732,-1.160
