aX,aY,aZ,gX,gY,gZ
0.536,-1.297,1.112,-70.923,-13.428,8.362
0.670,-1.261,1.242,-88.562,-15.869,-10.132
0.726,-1.169,1.373,-100.403,-23.010,-36.926
0.765,-1.040,1.469,-102.234,-32.410,-68.970
0.717,-0.870,1.507,-89.600,-42.664,-101.074
0.695,-0.661,1.507,-63.171,-51.453,-129.211
0.684,-0.362,1.445,-28.931,-53.040,-151.978
0.637,-0.101,1.243,9.338,-48.462,-171.326
0.543,0.088,1.022,47.180,-43.030,-184.570
0.520,0.346,0.749,75.562,-37.476,-186.768
0.434,0.524,0.572,88.257,-30.396,-179.565
0.411,0.677,0.352,78.125,-23.437,-164.429
0.418,0.935,0.766,45.593,-18.860,-142.944
0.348,1.199,0.634,31.860,-1.282,-123.108
0.312,1.435,0.773,16.113,1.953,-101.807
-1.785,4.000,-4.000,-123.169,-29.663,-80.811
-0.606,1.979,1.432,-706.299,-266.357,-13.611
-1.444,1.947,1.254,-760.864,-156.067,162.231
-0.063,2.492,1.712,-609.985,-36.377,186.584
0.723,2.691,1.474,-219.116,80.750,151.062
0.954,2.054,1.007,127.380,118.774,109.680
0.426,2.481,0.113,294.556,134.277,92.773
0.134,2.357,0.289,276.917,106.384,35.461
0.114,1.750,0.130,238.037,85.327,-24.841
-0.055,1.503,0.063,218.567,86.609,-27.588
0.005,1.452,0.151,203.064,81.238,-13.000
0.182,1.323,0.248,174.255,63.782,-16.785
0.246,1.134,0.414,126.160,37.292,-25.452
0.284,0.994,0.791,79.224,10.742,-23.315
0.351,0.850,1.067,53.711,-3.906,-13.672
0.400,0.726,1.231,46.570,-9.033,-3.479
0.448,0.563,1.320,52.002,-7.446,3.357
0.443,0.329,1.266,65.918,0.488,9.827
0.356,0.079,1.206,77.209,7.324,18.005
0.304,-0.106,1.170,79.895,12.817,28.809
0.298,-0.255,1.156,73.425,18.738,41.077
0.320,-0.382,1.116,61.584,22.888,54.749
0.354,-0.492,1.123,47.119,22.400,68.542
0.384,-0.594,1.141,35.950,19.836,79.895
0.404,-0.693,1.130,31.677,16.418,87.585
0.446,-0.765,1.103,33.936,13.550,90.271
0.440,-0.825,1.033,40.710,12.939,85.205
0.388,-0.907,0.946,46.570,10.742,73.730
0.316,-0.950,0.894,49.133,5.188,61.646
0.246,-0.935,0.870,49.561,2.258,51.208
0.175,-0.907,0.842,47.913,2.258,42.786
0.124,-0.878,0.825,42.419,2.014,39.185
0.114,-0.829,0.821,33.203,-0.183,39.673
0.119,-0.763,0.817,22.400,-2.258,40.710
0.126,-0.698,0.840,11.414,-2.502,39.368
0.162,-0.593,0.873,2.197,-0.122,36.499
0.197,-0.468,0.905,-4.089,2.258,31.799
0.195,-0.359,0.940,-7.629,2.380,26.001
0.205,-0.286,0.955,-8.179,1.404,20.935
0.190,-0.240,0.972,-5.737,-0.854,17.578
0.162,-0.211,0.970,-1.648,-1.465,16.174
0.139,-0.192,0.956,4.761,-0.366,16.418
0.138,-0.170,0.924,12.573,0.854,19.104
0.149,-0.149,0.870,19.958,2.625,23.315
0.167,-0.130,0.839,22.644,3.784,25.940
0.179,-0.096,0.824,21.057,3.845,26.855
0.181,-0.065,0.823,17.578,2.686,26.489
0.191,-0.044,0.836,13.062,1.282,25.146
0.219,-0.027,0.856,8.057,0.061,23.621
0.239,-0.010,0.869,3.906,-1.160,21.667
0.253,-0.000,0.895,-0.366,-2.197,17.395
0.248,0.010,0.926,-4.272,-2.563,11.841
0.236,0.026,0.953,-7.202,-2.563,6.775
0.239,0.054,0.983,-8.484,-2.136,2.563
0.235,0.090,1.006,-9.033,-2.136,-1.221
0.199,0.134,1.052,-7.690,-2.563,-4.028
0.168,0.159,1.071,-2.869,-1.587,-6.348
0.156,0.166,1.054,3.784,1.953,-7.202
0.144,0.159,1.033,9.399,4.456,-6.653
0.135,0.149,1.018,12.878,4.639,-4.822
0.127,0.136,1.000,14.648,4.822,-2.747
0.125,0.117,0.980,15.259,4.578,-0.183
0.128,0.088,0.965,14.160,4.150,2.930
0.137,0.068,0.952,11.902,3.418,6.470
0.164,0.041,0.952,9.216,3.174,9.033
0.201,0.025,0.950,6.531,2.869,10.071
0.221,0.010,0.945,3.723,1.953,8.789
0.227,-0.008,0.949,0.488,0.244,5.066
0.235,-0.002,0.956,-2.075,-1.648,1.221
0.236,0.008,0.965,-3.235,-2.380,-2.502
0.222,0.018,0.969,-2.747,-1.831,-6.653
0.211,0.033,0.964,-2.441,-0.793,-10.193
0.198,0.057,0.969,-3.113,-0.977,-12.024
0.179,0.078,0.978,-3.723,-1.221,-12.878
0.162,0.096,0.977,-3.601,-0.793,-13.000
0.153,0.108,0.976,-3.174,0.061,-12.207
0.143,0.118,0.973,-2.930,0.671,-10.742
0.134,0.122,0.971,-2.380,1.160,-8.972
0.129,0.125,0.970,-1.526,1.648,-6.714
0.130,0.128,0.955,-0.610,1.892,-4.211
0.132,0.115,0.962,0.122,1.953,-2.380
0.129,0.101,0.967,0.610,2.319,-0.305
0.138,0.105,0.962,1.221,3.784,2.869
0.164,0.108,0.953,2.380,5.005,5.371
0.186,0.094,0.952,3.235,3.784,5.981
0.196,0.078,0.962,2.869,0.793,5.432
0.199,0.065,0.981,1.770,-1.648,4.761
0.201,0.058,0.989,0.427,-2.625,4.089
0.191,0.053,0.991,-0.549,-2.869,3.540
0.188,0.059,0.993,-0.488,-2.625,3.540
0.194,0.060,0.985,0.610,-2.502,2.808
0.191,0.051,0.982,1.831,-2.869,1.709
0.185,0.044,0.972,2.502,-2.930,1.038
0.176,0.042,0.963,2.625,-2.869,0.305
0.170,0.044,0.954,2.136,-2.625,-0.366
0.166,0.050,0.948,1.099,-2.319,-0.488
0.159,0.060,0.943,-0.427,-2.197,-0.244
0.152,0.063,0.935,-1.709,-2.014,-0.122
0.150,0.069,0.937,-2.747,-1.831,0.427
0.150,0.077,0.939,-3.662,-1.648,1.465
0.146,0.075,0.943,-3.845,-1.160,2.075
0.151,0.073,0.950,-2.930,0.183,4.028
0.169,0.067,0.960,-2.075,1.160,4.272
0.177,0.067,0.962,-1.648,1.526,4.517
0.406,-1.597,1.132,-49.988,-4.272,63.843
0.651,-1.675,1.236,-56.396,-8.118,54.321
0.869,-1.647,1.332,-56.091,-15.930,24.902
1.003,-1.577,1.438,-44.861,-27.405,-19.348
1.026,-1.475,1.472,-22.339,-36.499,-70.496
0.994,-1.346,1.385,6.104,-39.734,-118.835
0.946,-1.219,1.251,33.142,-39.124,-159.180
0.881,-1.023,1.130,50.415,-36.499,-188.782
0.897,-0.738,1.028,56.213,-30.701,-207.886
0.945,-0.382,0.935,49.805,-20.996,-221.069
0.851,-0.021,0.861,33.508,-14.771,-231.506
0.731,0.341,0.778,13.611,-19.043,-231.506
0.641,0.734,0.773,-5.798,-33.203,-217.529
0.526,1.061,0.820,-18.616,-48.157,-197.388
0.364,1.312,0.891,-19.775,-56.824,-179.626
0.250,1.639,0.997,-8.240,-53.955,-160.767
0.174,2.016,1.020,12.756,-39.856,-139.587
0.097,2.317,1.008,37.231,-22.522,-119.690
0.072,2.581,1.047,52.307,-8.545,-97.534
1.268,4.000,0.843,49.500,-0.305,-62.317
-2.167,-0.113,1.055,-1.282,0.916,-1.587
-0.566,1.450,1.609,48.828,17.822,62.805
0.032,2.582,1.011,137.817,54.688,127.441
0.655,4.000,0.692,84.106,93.750,162.231
0.669,2.945,0.219,58.167,65.918,80.750
-0.083,2.027,0.548,79.529,-8.484,42.847
-0.376,1.821,0.717,58.960,-36.377,78.064
-0.097,1.708,0.779,34.546,-18.677,116.211
0.323,1.406,0.733,32.410,7.446,138.794
0.523,0.957,0.800,27.588,14.160,140.503
0.632,0.644,0.930,5.371,4.150,132.568
0.719,0.443,1.097,-15.381,-5.249,122.803
0.790,0.208,1.201,-22.644,-7.874,107.849
0.808,-0.026,1.231,-22.522,-5.432,88.379
0.765,-0.274,1.250,-20.142,-5.920,71.716
0.635,-0.520,1.295,-15.320,-12.024,61.829
0.498,-0.792,1.300,-6.104,-14.771,59.448
0.399,-1.098,1.239,2.930,-10.376,65.186
0.400,-1.359,1.163,4.883,-3.967,77.820
0.480,-1.513,1.090,-2.319,-0.427,90.820
0.571,-1.595,1.018,-13.672,-0.671,94.299
0.637,-1.575,0.965,-27.954,-5.615,85.815
0.629,-1.454,0.943,-40.405,-12.512,66.101
0.511,-1.324,0.937,-47.791,-16.785,38.269
0.370,-1.179,0.947,-49.683,-20.508,12.207
0.184,-1.018,0.977,-45.532,-23.621,-8.179
-0.008,-0.884,0.998,-34.607,-24.048,-19.775
-0.182,-0.783,0.994,-21.606,-23.254,-17.517
-0.249,-0.700,0.974,-11.230,-23.132,-2.136
-0.201,-0.631,0.963,-5.127,-21.973,19.165
-0.090,-0.552,0.974,-1.709,-19.165,36.743
0.015,-0.464,0.976,1.831,-16.846,46.753
0.088,-0.407,0.962,6.653,-15.869,48.950
0.131,-0.366,0.933,12.451,-13.000,44.983
0.162,-0.319,0.888,17.639,-5.066,36.560
0.186,-0.269,0.838,20.020,1.831,25.818
0.173,-0.229,0.816,18.188,3.113,15.259
0.142,-0.182,0.814,13.855,0.244,7.385
0.111,-0.150,0.810,9.521,0.122,2.258
0.089,-0.124,0.784,6.714,4.150,0.061
0.092,-0.076,0.722,4.944,8.850,1.404
0.098,-0.049,0.682,2.686,10.254,4.028
0.093,-0.010,0.670,-3.784,7.568,7.446
0.089,0.052,0.720,-13.428,0.427,11.047
0.067,0.106,0.815,-21.423,-5.981,13.550
0.087,0.132,0.890,-23.682,-8.484,14.465
0.107,0.149,0.958,-22.156,-8.789,13.245
0.115,0.147,1.024,-17.883,-8.118,9.644
0.102,0.131,1.071,-10.437,-5.127,5.371
0.075,0.111,1.097,-1.160,-0.916,1.953
0.096,0.075,1.081,7.385,5.005,-0.244
0.098,0.051,1.051,11.719,9.277,-1.038
0.093,0.040,1.055,11.353,8.972,-1.648
0.078,0.042,1.045,9.644,8.423,-2.014
0.079,0.040,1.031,8.362,8.728,-2.136
0.077,0.041,1.022,7.141,7.690,-2.014
0.059,0.052,1.019,6.470,6.592,-1.221
0.055,0.055,1.007,7.263,5.920,0.610
0.068,0.058,0.996,9.277,5.920,2.686
0.082,0.052,0.981,11.597,7.080,4.211
0.105,0.046,0.959,13.733,8.484,5.249
0.129,0.028,0.945,14.404,8.362,4.822
0.139,0.024,0.946,13.062,6.470,3.601
0.135,0.021,0.963,10.620,3.723,1.343
0.125,0.031,0.975,8.667,2.014,-1.282
0.110,0.050,0.981,7.507,1.648,-3.052
0.088,0.062,0.988,6.165,1.404,-4.944
0.068,0.070,0.990,5.615,1.160,-5.554
0.058,0.075,0.996,5.371,1.160,-5.371
0.054,0.081,0.996,5.859,1.465,-4.211
0.060,0.073,0.990,7.507,1.892,-3.357
0.060,0.057,0.976,8.606,2.991,-2.747
0.069,0.043,0.956,8.850,4.089,-2.502
0.075,0.029,0.942,7.751,4.639,-2.808
0.077,0.025,0.934,5.005,4.822,-3.235
0.078,0.020,0.930,1.099,5.005,-3.357
0.084,0.014,0.933,-3.113,3.967,-3.418
0.093,0.021,0.947,-6.897,2.625,-3.540
0.106,0.026,0.971,-9.949,1.221,-3.784
0.103,0.036,0.987,-11.230,0.244,-4.639
0.099,0.038,1.000,-10.437,0.244,-5.554
0.098,0.049,1.005,-8.545,0.610,-5.554
0.098,0.064,1.013,-6.287,0.610,-5.127
0.090,0.071,1.013,-4.150,0.793,-4.822
0.078,0.067,1.014,-2.258,0.916,-4.578
0.068,0.064,1.013,-0.916,0.916,-3.540
0.065,0.066,1.005,0.244,1.221,-2.197
0.066,0.056,0.994,1.953,1.953,-0.793
0.071,0.050,0.977,2.930,2.380,0.916
0.069,0.052,0.967,2.747,1.831,2.563
0.067,0.044,0.956,2.075,1.587,3.601
0.071,0.038,0.948,1.038,1.770,4.456
0.081,0.032,0.946,-0.549,1.709,5.188
0.089,0.031,0.953,-2.014,1.648,5.859
0.100,0.026,0.958,-2.991,1.526,5.554
0.101,0.022,0.967,-3.601,1.160,4.333
0.102,0.022,0.979,-3.784,0.000,3.479
0.101,0.028,0.992,-3.723,-0.305,2.502
0.104,0.032,0.997,-2.197,0.183,1.343
0.229,1.757,1.250,9.155,3.723,-124.756
0.070,2.124,1.448,0.732,-1.465,-107.971
0.025,2.367,1.619,0.732,-3.906,-81.055
0.024,2.582,1.742,10.681,-5.676,-48.645
-0.008,2.703,1.742,33.447,-6.348,-23.193
0.051,3.997,1.403,65.552,-4.272,-13.489
-0.299,1.404,1.467,92.407,-10.498,-51.270
-0.359,1.799,0.917,136.108,-9.521,7.385
-0.181,2.771,0.759,113.464,-4.272,69.824
-0.146,1.846,0.461,76.843,-13.306,31.738
-0.439,1.651,0.567,46.692,-32.654,33.997
-0.413,1.608,0.663,11.536,-40.649,64.026
-0.240,1.437,0.773,-15.076,-33.691,90.271
-0.046,1.233,0.950,-21.362,-21.179,113.159
0.111,0.979,1.055,-17.029,-0.488,123.413
0.266,0.720,1.091,-9.949,20.752,126.038
0.513,0.484,1.110,-6.592,28.809,126.282
0.689,0.255,1.173,-10.498,20.264,122.437
0.819,0.031,1.213,-19.165,5.127,110.962
0.878,-0.116,1.231,-32.104,-6.592,89.844
0.820,-0.260,1.266,-47.180,-15.991,63.904
0.692,-0.419,1.298,-57.495,-24.597,43.335
0.515,-0.565,1.313,-57.190,-29.846,34.668
0.384,-0.726,1.296,-47.485,-29.663,35.034
0.300,-0.898,1.252,-34.790,-23.254,40.100
0.281,-1.043,1.162,-25.391,-13.184,48.157
0.286,-1.129,1.093,-23.071,-7.996,56.030
0.299,-1.156,1.061,-27.222,-10.193,59.937
0.305,-1.140,1.048,-35.095,-15.320,58.777
0.290,-1.102,1.040,-42.542,-21.484,54.382
0.275,-1.038,1.017,-46.082,-27.588,47.424
0.236,-0.981,0.983,-44.312,-30.518,37.720
0.190,-0.929,0.940,-38.635,-28.870,25.452
0.125,-0.856,0.886,-31.738,-25.452,14.648
0.043,-0.780,0.846,-25.757,-24.658,7.812
-0.012,-0.702,0.828,-21.423,-25.879,5.737
-0.052,-0.625,0.809,-17.944,-25.757,6.714
-0.077,-0.570,0.795,-13.245,-23.437,9.888
-0.079,-0.542,0.768,-7.141,-18.433,13.245
-0.063,-0.514,0.743,-2.686,-12.268,16.357
-0.032,-0.464,0.729,-0.122,-6.409,18.127
-0.042,-0.430,0.709,1.526,-1.343,17.822
-0.059,-0.408,0.692,1.404,2.625,17.273
-0.059,-0.370,0.681,-0.244,5.798,18.494
-0.050,-0.335,0.669,-1.282,8.972,20.264
-0.030,-0.297,0.659,-1.160,12.024,21.606
-0.009,-0.251,0.668,-1.831,12.451,22.217
-0.007,-0.208,0.710,-3.357,9.827,22.339
0.000,-0.164,0.766,-4.272,5.859,21.851
0.011,-0.134,0.826,-4.456,2.808,20.508
0.022,-0.116,0.884,-3.784,1.465,17.639
0.034,-0.093,0.929,-1.770,1.648,14.038
0.053,-0.070,0.982,0.305,2.319,8.972
0.055,-0.051,1.026,2.014,3.052,2.747
0.054,-0.037,1.051,3.967,4.211,-2.869
0.024,-0.028,1.070,6.470,5.615,-7.080
0.010,-0.017,1.062,8.057,6.836,-9.338
-0.000,-0.017,1.078,7.690,6.897,-10.376
-0.001,-0.005,1.071,6.897,7.080,-10.437
-0.007,0.009,1.059,6.531,8.301,-9.033
0.002,0.019,1.038,6.104,8.423,-7.324
0.012,0.030,1.022,5.188,7.996,-5.371
0.021,0.040,1.005,3.479,7.507,-4.578
0.024,0.045,0.998,1.343,6.409,-4.333
0.033,0.049,0.999,-0.732,4.211,-4.395
0.038,0.053,1.005,-2.197,2.014,-4.883
0.035,0.053,1.016,-2.747,0.977,-5.859
0.030,0.056,1.015,-2.319,1.770,-5.981
0.026,0.053,1.006,-1.099,3.113,-5.066
0.028,0.052,1.007,-0.366,3.540,-3.845
0.032,0.056,1.008,0.244,4.089,-2.625
0.036,0.059,1.006,1.526,4.578,-2.136
0.033,0.056,0.999,3.235,5.066,-1.953
0.028,0.045,0.994,4.456,4.944,-1.770
0.023,0.029,0.985,5.127,5.005,-0.793
0.028,0.016,0.976,5.371,5.493,0.305
0.033,0.005,0.969,5.066,5.432,0.977
0.035,-0.010,0.961,4.578,5.249,1.160
0.038,-0.023,0.957,3.662,5.188,1.038
0.048,-0.021,0.954,2.075,4.822,0.916
0.047,-0.020,0.954,0.000,4.578,-0.305
0.035,-0.012,0.959,-2.014,3.967,-1.709
0.023,-0.006,0.971,-3.662,3.357,-2.014
0.014,0.001,0.984,-4.150,2.747,-1.465
0.019,0.009,0.995,-4.089,2.380,-0.305
0.022,0.010,0.997,-3.418,2.136,0.793
0.024,-0.003,1.000,-2.441,1.099,1.587
0.022,-0.006,1.001,-2.502,0.183,2.197
0.026,-0.011,0.997,-2.563,0.122,3.052
0.031,-0.011,0.993,-2.625,0.732,3.540
0.045,-0.002,0.993,-2.930,0.671,3.479
0.048,0.002,0.992,-3.296,0.000,2.686
0.040,0.008,0.988,-3.601,-0.977,1.709
0.035,0.004,0.989,-3.418,-1.526,0.488
0.026,0.004,0.984,-2.930,-1.160,-0.244
0.022,0.002,0.979,-2.319,-0.916,-0.122
0.019,-0.001,0.970,-1.648,-0.305,0.427
0.024,-0.001,0.961,-1.282,0.610,0.977
0.034,-0.005,0.955,-1.892,1.404,1.587
0.038,0.001,0.959,-3.601,1.709,2.197
0.039,0.013,0.968,-4.883,1.404,2.319
0.041,0.023,0.979,-5.737,1.099,2.258
0.045,0.028,0.985,-5.859,0.854,2.197
0.042,0.032,0.989,-5.066,0.488,2.319
0.043,0.028,0.982,-3.845,0.427,2.686
0.043,0.024,0.977,-2.258,0.488,2.869
0.045,0.018,0.973,-0.732,0.366,2.808
0.040,0.015,0.966,0.549,0.488,2.625
0.041,0.012,0.959,1.526,0.916,2.258
0.042,0.012,0.955,1.038,0.977,1.953
0.040,0.016,0.959,-0.671,0.488,2.197
0.036,0.020,0.967,-2.014,-0.122,2.136
0.035,0.017,0.977,-2.747,-0.305,2.075
0.033,0.017,0.984,-2.502,-0.366,2.319
0.037,0.014,0.995,-1.831,-0.366,2.686
0.043,0.015,0.997,-0.549,-0.061,2.441
0.043,0.011,0.989,0.977,0.610,2.075
0.038,0.007,0.983,1.953,0.671,1.221
0.034,0.015,0.975,2.319,0.427,0.854
0.365,-1.324,1.040,-4.761,12.390,-78.735
0.470,-1.278,1.096,1.892,16.174,-88.013
0.585,-1.185,1.123,10.376,21.729,-98.022
0.759,-1.006,1.147,18.982,26.917,-113.037
0.929,-0.794,1.127,25.391,33.081,-133.545
0.982,-0.580,1.102,26.550,37.842,-157.410
0.926,-0.292,1.074,21.423,36.072,-176.758
0.874,0.047,1.115,10.010,25.269,-186.279
0.791,0.461,1.196,-3.296,11.780,-188.599
0.602,0.855,1.288,-12.390,-1.160,-182.983
0.410,1.217,1.430,-16.663,-14.404,-165.649
0.323,1.566,1.594,-17.395,-23.987,-140.808
0.249,1.839,1.762,-10.193,-26.184,-116.882
0.145,2.000,1.846,10.986,-23.376,-96.619
0.074,2.082,1.781,47.729,-16.968,-78.247
0.613,3.729,-1.287,-3.601,-33.081,-60.852
-2.834,2.017,1.327,-249.573,-140.137,20.142
-1.327,2.384,1.648,-136.292,-26.245,144.653
0.739,1.958,0.791,52.307,72.815,179.504
1.259,3.253,1.269,171.753,106.628,162.292
1.304,2.484,0.471,204.102,125.000,87.524
0.658,1.452,0.715,145.508,41.382,-6.836
0.208,1.499,0.799,109.619,-13.794,-23.437
0.217,1.516,0.841,92.163,-8.301,-16.052
0.281,1.374,0.664,90.942,10.254,-23.743
0.271,1.164,0.648,85.815,9.094,-45.349
0.125,0.976,0.808,60.425,-1.038,-65.796
0.035,0.830,0.984,28.748,-3.479,-65.491
0.019,0.689,1.058,7.629,-2.319,-47.363
0.007,0.532,1.147,-4.700,-6.531,-15.625
-0.013,0.339,1.219,-10.620,-12.695,24.292
0.074,0.156,1.225,-8.789,-11.108,64.941
0.124,-0.069,1.184,-0.305,-3.723,97.107
0.210,-0.357,1.144,8.179,3.296,121.643
0.266,-0.603,1.094,10.925,5.981,140.930
0.320,-0.825,1.087,5.676,4.395,151.611
0.378,-1.027,1.081,-6.592,2.625,155.701
0.426,-1.135,1.080,-24.658,-0.793,155.029
0.455,-1.184,1.113,-43.457,-6.897,148.987
0.434,-1.228,1.140,-55.725,-13.184,137.878
0.393,-1.311,1.111,-58.960,-18.127,125.610
0.357,-1.360,1.070,-53.101,-23.376,113.342
0.306,-1.407,0.984,-39.001,-26.367,96.008
0.248,-1.450,0.874,-21.301,-25.757,74.646
0.184,-1.449,0.764,-7.996,-21.545,55.054
0.130,-1.399,0.667,-4.150,-17.395,37.537
0.071,-1.312,0.630,-8.240,-17.578,24.170
0.016,-1.196,0.627,-17.334,-19.897,15.503
-0.013,-1.077,0.648,-27.222,-20.630,10.254
-0.014,-0.921,0.714,-35.950,-19.592,6.653
0.000,-0.755,0.791,-39.917,-17.639,3.296
0.018,-0.607,0.865,-36.255,-15.747,-1.099
0.026,-0.477,0.916,-27.283,-11.597,-5.859
0.023,-0.355,0.927,-16.479,-5.249,-10.498
0.001,-0.262,0.922,-6.409,0.854,-13.611
-0.018,-0.201,0.911,1.892,6.226,-14.526
-0.025,-0.141,0.867,7.751,12.451,-11.658
-0.034,-0.083,0.816,9.827,18.066,-5.615
-0.007,-0.038,0.780,7.080,19.409,1.892
0.042,0.035,0.738,-0.793,11.902,8.728
0.020,0.123,0.801,-7.812,-2.991,12.878
-0.028,0.152,0.921,-10.742,-15.259,14.221
-0.015,0.151,0.975,-9.705,-19.226,15.991
0.018,0.143,1.008,-5.920,-18.921,17.517
0.040,0.118,1.046,-0.854,-18.860,16.663
0.041,0.091,1.080,5.249,-17.517,13.611
0.064,0.068,1.079,11.475,-13.306,10.315
0.066,0.034,1.078,16.602,-9.766,6.165
0.053,0.016,1.085,20.081,-8.057,3.113
0.037,0.002,1.049,23.010,-3.540,0.977
0.041,-0.024,0.995,23.621,1.099,-1.343
0.042,-0.032,0.963,19.653,2.747,-2.380
0.037,-0.026,0.946,12.878,2.319,-3.357
0.037,-0.025,0.928,6.653,1.282,-5.005
0.042,-0.021,0.922,0.854,0.671,-6.653
0.035,0.000,0.929,-4.822,-0.244,-8.179
0.023,0.016,0.936,-9.705,-1.526,-9.216
0.009,0.029,0.959,-13.062,-2.625,-9.094
0.007,0.046,0.991,-14.587,-3.235,-7.935
0.010,0.066,1.016,-13.916,-2.686,-6.470
0.005,0.077,1.026,-10.254,-0.854,-5.066
0.004,0.075,1.022,-5.371,1.526,-3.052
0.008,0.065,1.005,-0.610,3.601,-1.343
0.020,0.051,0.984,2.869,5.005,0.488
0.025,0.039,0.971,3.906,5.554,1.648
0.030,0.031,0.969,3.113,4.944,2.625
0.036,0.027,0.978,2.075,4.150,3.235
0.046,0.021,0.981,1.648,3.540,3.784
0.060,0.012,0.981,1.648,2.991,3.540
0.062,0.001,0.977,2.197,2.808,2.808
0.054,-0.011,0.968,2.747,2.502,1.587
0.050,-0.012,0.958,2.991,2.136,0.793
0.042,-0.012,0.951,3.357,1.526,0.427
0.025,-0.020,0.946,3.235,1.282,0.488
0.018,-0.020,0.943,2.686,1.465,0.916
0.021,-0.019,0.949,1.709,1.709,1.953
0.022,-0.021,0.957,0.549,1.709,2.869
0.023,-0.028,0.971,-0.732,1.648,3.235
0.028,-0.018,0.985,-1.953,1.221,3.662
0.033,-0.015,0.997,-2.319,0.916,3.601
0.032,-0.015,1.000,-2.319,-0.061,3.052
0.029,-0.014,1.001,-2.014,-0.793,2.686
0.023,-0.013,0.999,-1.831,-1.221,2.380
0.018,-0.011,0.995,-1.953,-1.221,1.831
0.017,-0.013,0.994,-2.380,-1.282,0.977
0.008,-0.000,0.999,-2.686,-1.465,0.854
0.004,0.003,1.001,-2.808,-0.916,0.977
0.000,0.005,0.999,-2.686,-0.549,1.343
0.003,0.015,0.996,-2.808,-0.183,2.136
0.006,0.023,0.992,-2.808,-0.366,2.869
0.002,0.021,0.986,-2.258,-0.305,2.930
0.001,0.020,0.981,-1.831,0.000,3.601
0.005,0.021,0.980,-1.953,0.000,4.456
0.011,0.018,0.982,-1.587,-0.122,5.554
0.013,0.012,0.983,-1.404,-0.305,5.859
0.019,0.004,0.980,-1.343,-0.305,5.981
0.018,0.000,0.978,-0.977,-0.427,6.226
0.024,-0.005,0.974,-0.427,-0.122,6.592
0.029,-0.012,0.969,-0.427,0.061,6.653
0.258,1.476,1.149,-5.981,-6.714,-132.568
0.130,1.748,1.210,-2.747,-8.240,-128.601
0.034,1.984,1.249,9.949,-9.705,-118.774
-0.037,2.140,1.233,30.945,-7.263,-105.652
0.215,4.000,-1.082,34.851,-6.470,-96.802
-1.667,1.384,2.020,-20.325,-32.104,-49.255
-1.273,1.617,1.401,119.019,27.588,57.678
-0.024,1.140,0.764,192.078,61.584,81.238
0.455,2.017,0.371,151.001,92.346,98.267
0.550,1.979,0.254,84.656,86.914,105.774
0.211,0.915,0.581,48.645,28.503,61.462
0.036,0.828,0.855,14.954,-3.479,67.810
0.310,0.971,0.949,-11.475,5.615,79.224
0.410,0.833,0.993,-14.038,14.771,62.866
0.327,0.687,1.104,-10.254,11.292,36.072
0.246,0.592,1.185,-10.620,5.615,15.076
0.210,0.515,1.249,-7.629,3.845,1.526
0.171,0.398,1.263,0.854,7.263,-6.531
0.143,0.250,1.238,9.583,10.864,-7.690
0.110,0.122,1.191,14.587,10.071,-1.160
0.082,-0.007,1.158,15.137,4.700,10.315
0.048,-0.128,1.138,10.864,-1.404,26.123
0.029,-0.239,1.121,3.174,-5.249,44.800
0.035,-0.319,1.110,-5.554,-8.789,63.599
0.056,-0.397,1.124,-15.747,-11.658,78.186
0.101,-0.461,1.122,-26.733,-13.855,88.989
0.142,-0.509,1.118,-36.682,-18.127,95.886
0.134,-0.554,1.143,-43.945,-22.339,97.046
0.111,-0.599,1.154,-49.194,-22.888,94.421
0.057,-0.644,1.153,-51.819,-21.790,91.797
0.016,-0.686,1.147,-50.110,-21.545,91.125
0.002,-0.722,1.143,-45.105,-21.240,91.736
-0.018,-0.779,1.112,-38.696,-19.592,92.896
0.001,-0.830,1.073,-32.227,-17.578,94.604
0.044,-0.844,1.023,-28.687,-15.503,95.520
0.090,-0.857,0.981,-29.236,-15.320,93.384
0.132,-0.847,0.949,-31.311,-18.555,88.440
0.155,-0.821,0.922,-33.630,-23.193,79.834
0.169,-0.776,0.881,-33.813,-26.001,67.505
0.155,-0.731,0.838,-32.104,-25.269,51.331
0.096,-0.677,0.797,-30.396,-21.851,34.790
0.024,-0.614,0.761,-28.564,-18.433,22.217
-0.006,-0.556,0.731,-27.039,-15.076,14.709
-0.035,-0.485,0.705,-24.658,-12.207,11.780
-0.029,-0.425,0.694,-21.057,-9.399,10.925
-0.024,-0.359,0.676,-18.188,-6.348,11.047
-0.026,-0.294,0.672,-16.785,-6.470,11.780
-0.031,-0.235,0.706,-16.785,-10.620,13.306
-0.033,-0.184,0.769,-17.029,-15.076,14.343
-0.025,-0.150,0.823,-14.709,-17.273,13.672
-0.021,-0.126,0.862,-9.277,-17.029,11.536
-0.018,-0.115,0.891,-2.808,-14.771,8.606
-0.017,-0.108,0.902,3.906,-11.780,5.371
-0.021,-0.099,0.904,9.949,-8.728,2.197
-0.015,-0.080,0.905,13.489,-5.798,-0.671
-0.027,-0.061,0.904,14.954,-3.601,-3.418
-0.045,-0.048,0.905,14.954,-2.563,-5.798
-0.062,-0.038,0.908,13.550,-2.075,-6.836
-0.079,-0.034,0.921,10.803,-1.587,-6.714
-0.084,-0.023,0.953,7.629,-1.343,-5.066
-0.079,-0.011,0.979,6.348,-0.122,-2.563
-0.064,-0.009,0.999,6.836,1.526,-0.977
-0.048,-0.010,1.006,7.446,3.052,0.427
-0.027,-0.018,1.015,7.751,4.150,1.465
-0.008,-0.025,1.015,7.446,4.761,1.282
0.003,-0.023,1.018,5.920,4.944,-0.366
0.013,-0.014,1.025,3.235,4.944,-2.808
-0.001,-0.002,1.038,0.305,3.906,-5.737
-0.022,0.016,1.051,-1.526,2.014,-7.935
-0.036,0.026,1.056,-1.526,0.671,-9.094
-0.046,0.032,1.049,0.061,0.549,-9.583
-0.052,0.033,1.028,2.258,1.160,-9.521
-0.062,0.027,1.010,4.028,1.892,-8.789
-0.061,0.024,0.998,4.761,1.953,-7.812
-0.061,0.025,0.982,5.188,2.197,-6.897
-0.059,0.026,0.976,5.249,2.441,-6.836
-0.058,0.022,0.967,4.272,3.235,-6.958
-0.065,0.023,0.966,2.441,3.479,-6.775
-0.064,0.020,0.965,0.916,3.662,-5.432
-0.057,0.018,0.969,0.366,3.418,-3.967
-0.051,0.008,0.977,0.366,3.418,-2.380
-0.034,0.002,0.974,1.099,4.211,-1.526
-0.017,-0.005,0.964,1.831,5.493,-1.282
-0.003,-0.012,0.957,1.892,5.859,-1.587
0.002,-0.008,0.956,1.160,5.432,-1.831
0.001,0.002,0.949,0.061,4.883,-2.258
0.002,0.002,0.953,-0.977,3.784,-3.052
-0.009,0.008,0.951,-2.686,2.075,-3.967
-0.027,0.016,0.955,-3.967,1.221,-4.028
-0.036,0.019,0.954,-3.967,0.793,-3.784
-0.040,0.016,0.957,-3.479,0.610,-3.052
-0.045,0.016,0.960,-2.747,0.427,-2.319
-0.050,0.017,0.969,-2.014,0.183,-1.709
-0.050,0.021,0.976,-1.587,0.183,-0.854
-0.050,0.024,0.980,-1.404,0.671,-0.244
-0.052,0.026,0.982,-1.648,0.854,0.427
-0.055,0.028,0.989,-1.404,1.160,1.648
-0.051,0.019,0.986,-0.732,1.831,2.441
-0.046,0.008,0.989,-0.366,2.075,3.113
-0.041,0.004,0.998,-0.488,1.587,3.784
-0.028,0.004,1.003,-0.061,1.831,4.028
-0.022,-0.002,0.999,0.427,2.380,3.296
-0.023,-0.002,0.991,0.000,2.686,2.808
-0.022,0.001,0.992,-1.099,2.014,2.563
-0.026,0.011,1.001,-2.441,0.977,2.258
-0.027,0.018,1.009,-2.930,0.061,1.831
-0.033,0.022,1.009,-2.808,-0.061,1.587
-0.045,0.029,1.008,-2.380,-0.122,1.465
-0.051,0.033,1.006,-1.160,0.122,2.136
-0.051,0.029,0.997,0.854,1.038,2.930
-0.047,0.022,0.983,2.441,1.953,3.540
-0.042,0.016,0.971,2.747,2.625,4.089
-0.040,0.013,0.966,2.075,2.747,4.517
-0.034,0.014,0.967,1.099,2.502,4.822
-0.023,0.015,0.971,0.549,2.319,5.005
-0.018,0.010,0.972,0.671,2.258,4.211
-0.023,0.008,0.967,0.610,2.075,3.235
-0.026,0.003,0.976,-0.122,1.038,2.258
-0.033,0.004,0.981,-0.427,0.610,1.709
-0.742,2.212,-0.800,-257.812,-154.968,-144.714
-2.949,1.155,0.871,-743.591,-300.903,-52.490
-1.954,3.180,0.658,-536.255,-85.815,91.553
-0.195,2.085,0.581,-188.416,113.037,172.180
0.365,1.425,0.713,-11.292,119.751,173.157
0.635,1.209,0.749,83.069,113.220,144.897
0.578,0.968,0.779,122.986,103.516,82.214
0.634,0.567,0.778,148.376,92.163,11.169
0.614,0.355,0.667,157.715,72.205,-44.922
0.416,0.326,0.755,132.141,24.902,-80.688
0.197,0.340,0.819,100.525,-16.785,-100.220
0.064,0.410,0.839,77.393,-36.255,-103.271
-0.075,0.471,0.865,65.063,-42.114,-99.731
-0.163,0.525,0.869,65.796,-42.603,-94.727
-0.206,0.572,0.940,75.867,-41.138,-89.844
-0.055,1.212,0.767,89.600,-40.222,-83.496
-0.356,0.439,0.832,95.581,-45.349,-93.018
-0.451,0.721,0.687,99.548,-34.058,-74.097
-0.492,0.835,0.840,77.576,-25.146,-50.903
-0.427,0.789,0.738,72.327,-11.658,-33.081
-0.355,0.854,0.663,63.232,-8.179,-9.949
-0.265,0.962,0.653,48.035,-10.681,7.874
-0.195,1.040,0.620,40.588,-12.329,18.433
-0.165,1.079,0.640,42.419,-12.756,23.376
-0.091,1.106,0.632,50.537,-10.803,26.978
-0.042,1.095,0.592,61.951,-9.460,31.006
-0.030,1.048,0.542,72.571,-8.972,34.790
-0.037,0.956,0.511,78.796,-7.568,38.696
-0.041,0.856,0.463,80.933,-4.456,45.837
-0.076,0.760,0.436,77.820,0.061,54.749
-0.067,0.675,0.471,68.665,5.554,65.613
-0.081,0.614,0.541,58.350,11.597,79.346
-0.058,0.545,0.603,51.025,17.029,93.445
-0.023,0.472,0.672,47.180,22.827,105.347
0.025,0.444,0.784,43.701,29.419,114.868
0.107,0.353,0.869,42.175,38.025,121.033
0.217,0.222,0.897,43.213,45.532,124.329
0.266,0.080,0.891,44.189,47.241,123.108
0.254,-0.087,0.915,41.199,43.030,116.577
0.224,-0.233,0.958,35.095,35.828,108.398
0.188,-0.333,0.985,32.166,28.687,100.220
0.099,-0.430,0.988,34.912,23.437,89.905
-0.004,-0.574,1.025,38.513,18.860,78.918
-0.090,-0.695,1.038,36.743,18.250,74.585
-0.138,-0.780,1.046,29.724,19.531,76.843
-0.143,-0.854,1.073,17.517,20.630,82.642
-0.109,-0.886,1.093,0.793,22.095,91.919
-0.042,-0.888,1.120,-18.433,24.109,100.403
0.029,-0.880,1.159,-37.048,25.940,103.027
0.087,-0.837,1.187,-51.453,26.855,98.816
0.140,-0.766,1.227,-60.547,25.818,87.769
0.145,-0.688,1.267,-62.988,24.231,70.984
0.115,-0.603,1.286,-58.594,23.071,51.941
0.053,-0.530,1.292,-49.377,19.775,34.607
0.011,-0.454,1.276,-37.781,15.137,21.118
-0.022,-0.379,1.249,-25.696,10.071,10.864
-0.079,-0.329,1.218,-14.099,4.822,3.906
-0.121,-0.275,1.187,-5.737,0.671,0.488
-0.152,-0.227,1.143,-0.305,-1.892,0.549
-0.158,-0.195,1.095,3.845,-2.930,2.441
-0.145,-0.163,1.053,5.127,-3.601,4.761
-0.129,-0.126,1.014,4.028,-4.456,6.287
-0.111,-0.087,0.995,2.502,-5.493,6.409
-0.098,-0.051,0.978,1.160,-6.226,4.150
-0.094,-0.017,0.968,0.000,-6.531,1.282
-0.091,0.018,0.960,-0.305,-7.263,-1.404
-0.092,0.041,0.956,-0.183,-8.179,-3.784
-0.090,0.047,0.956,-0.977,-8.789,-6.165
-0.091,0.065,0.973,-2.136,-9.521,-7.568
-0.093,0.087,0.997,-3.113,-9.827,-9.216
-0.090,0.114,1.015,-2.991,-9.155,-10.681
-0.102,0.141,1.034,-1.648,-8.423,-11.475
-0.120,0.151,1.036,1.282,-7.812,-11.292
-0.134,0.151,1.021,4.517,-6.287,-9.583
-0.132,0.152,1.001,6.592,-4.639,-6.348
-0.130,0.144,0.980,7.874,-3.296,-3.601
-0.127,0.133,0.960,8.667,-2.563,-1.953
-0.121,0.119,0.942,8.911,-1.953,-0.488
-0.118,0.101,0.927,8.240,-0.916,0.366
-0.114,0.085,0.917,6.104,0.183,0.671
-0.108,0.081,0.914,2.808,0.671,0.977
-0.104,0.084,0.919,-0.977,0.732,0.854
-0.103,0.087,0.936,-4.333,0.305,0.793
-0.108,0.104,0.957,-6.775,-0.671,0.916
-0.112,0.107,0.971,-7.019,-0.977,1.404
-0.111,0.097,0.976,-5.371,-0.061,1.953
-0.112,0.093,0.984,-3.296,1.770,3.174
-0.101,0.085,0.979,-0.549,3.967,4.211
-0.094,0.072,0.972,2.136,5.676,4.822
-0.087,0.066,0.967,3.296,5.920,4.822
-0.082,0.059,0.961,3.357,5.737,4.333
-0.084,0.053,0.951,2.625,4.639,3.540
-0.087,0.051,0.952,1.282,3.418,2.869
-0.090,0.053,0.960,0.366,2.625,1.831
-0.091,0.056,0.965,0.244,2.136,1.099
-0.093,0.053,0.965,0.732,2.136,0.488
-0.093,0.054,0.958,1.343,2.075,0.122
-0.087,0.062,0.951,1.160,1.892,-0.183
-0.090,0.067,0.953,0.183,1.343,-0.427
-0.093,0.076,0.960,-0.916,0.488,-0.427
-0.096,0.085,0.971,-1.648,-0.305,-0.549
-0.101,0.088,0.977,-1.221,-0.793,-0.732
-0.110,0.092,0.979,-0.732,-1.221,-0.793
-0.112,0.093,0.974,0.000,-1.099,-0.732
-0.111,0.097,0.967,0.183,-0.427,-0.427
-0.118,0.100,0.964,-0.305,0.061,-0.061
-0.118,0.106,0.962,-1.770,0.427,0.366
-0.123,0.122,0.971,-3.357,0.122,1.404
-0.125,0.128,0.979,-3.601,-0.061,2.380
-0.122,0.124,0.990,-3.052,-0.366,2.991
-0.118,0.122,0.998,-1.587,-0.366,3.967
-0.118,0.112,1.000,0.854,0.244,4.395
-0.115,0.097,0.990,3.052,1.038,4.517
-0.109,0.088,0.975,4.456,1.953,4.761
-0.099,0.082,0.960,5.005,2.441,4.944
-0.086,0.077,0.943,4.211,2.380,4.211
-0.084,0.073,0.938,2.197,1.648,3.113
-0.089,0.080,0.943,-0.427,0.549,1.831
-0.096,0.084,0.944,-2.258,0.000,0.488
-1.194,0.983,0.738,4.639,14.893,31.250
-0.630,1.119,1.361,69.885,27.527,80.261
0.364,0.612,0.957,93.872,65.125,58.838
0.627,1.694,0.665,62.927,76.172,38.452
0.362,1.011,0.782,23.682,46.936,-4.395
-0.037,0.691,0.968,-0.610,-2.136,-38.696
-0.089,0.941,1.030,-29.114,-27.283,-21.729
-0.012,1.055,1.093,-46.692,-41.016,-5.310
-0.025,0.994,1.095,-45.898,-50.903,-2.930
-0.036,0.961,1.099,-42.603,-51.880,-4.578
-0.016,0.951,1.134,-44.617,-52.917,-5.554
-0.087,0.942,1.209,-47.668,-57.373,-5.127
-0.157,0.872,1.230,-43.823,-56.091,1.831
-0.165,0.739,1.208,-35.522,-46.570,18.738
-0.142,0.632,1.171,-28.503,-37.109,42.419
-0.108,0.506,1.140,-22.644,-28.259,67.322
-0.049,0.386,1.109,-19.226,-20.142,88.562
0.029,0.304,1.096,-19.165,-12.939,106.812
0.110,0.201,1.067,-20.142,-6.775,120.850
0.168,0.109,1.054,-21.179,-4.272,129.639
0.205,0.021,1.069,-23.621,-4.639,133.484
0.210,-0.078,1.079,-26.978,-5.066,133.850
0.177,-0.166,1.080,-28.442,-6.958,133.911
0.147,-0.252,1.090,-26.978,-8.789,134.583
0.129,-0.331,1.079,-24.658,-9.705,135.681
0.114,-0.429,1.054,-23.376,-9.888,138.977
0.111,-0.529,1.020,-23.682,-10.315,143.066
0.111,-0.621,0.999,-26.550,-10.498,145.203
0.118,-0.735,0.992,-31.982,-10.803,145.081
0.152,-0.880,0.980,-36.682,-12.268,144.043
0.186,-1.009,0.957,-38.574,-16.541,137.756
0.165,-1.130,0.941,-37.048,-21.240,124.268
0.105,-1.220,0.910,-31.616,-21.484,106.384
0.055,-1.288,0.863,-24.170,-16.907,86.182
0.007,-1.328,0.802,-17.151,-10.559,66.345
-0.042,-1.336,0.755,-12.268,-5.920,49.500
-0.074,-1.320,0.719,-8.545,-3.479,35.522
-0.101,-1.285,0.681,-4.883,-1.831,23.743
-0.107,-1.213,0.657,-1.770,0.854,12.634
-0.069,-1.077,0.660,0.916,4.517,1.038
-0.039,-0.908,0.666,2.930,9.460,-13.000
-0.043,-0.723,0.687,3.296,13.611,-28.625
-0.064,-0.521,0.730,1.221,13.306,-42.419
-0.102,-0.321,0.808,-2.686,9.094,-52.734
-0.140,-0.150,0.885,-5.127,4.517,-59.082
-0.210,0.011,0.953,-6.714,0.122,-59.814
-0.248,0.156,1.014,-7.141,-4.700,-53.589
-0.267,0.263,1.076,-5.249,-8.667,-42.725
-0.250,0.341,1.132,-1.343,-9.277,-31.067
-0.214,0.406,1.158,5.310,-5.920,-21.362
-0.184,0.447,1.157,12.268,-2.625,-13.977
-0.172,0.481,1.162,17.944,-1.831,-9.094
-0.175,0.494,1.162,23.315,-2.014,-5.615
-0.174,0.487,1.140,28.564,-1.282,-1.892
-0.173,0.451,1.093,33.264,0.000,1.709
-0.171,0.406,1.044,34.729,0.854,5.615
-0.162,0.354,1.000,31.616,1.343,9.399
-0.146,0.315,0.970,24.902,1.343,12.512
-0.130,0.277,0.951,15.747,0.122,14.099
-0.128,0.248,0.951,6.287,-1.343,14.648
-0.136,0.224,0.963,-1.038,-2.014,14.282
-0.145,0.195,0.961,-4.028,-0.977,13.550
-0.160,0.156,0.955,-4.333,1.160,12.878
-0.163,0.117,0.952,-4.395,2.991,12.695
-0.164,0.078,0.944,-4.272,4.333,12.695
-0.170,0.039,0.942,-3.967,5.859,12.451
-0.174,0.002,0.937,-3.967,7.446,11.841
-0.174,-0.024,0.940,-5.066,8.240,11.780
-0.173,-0.051,0.952,-7.507,7.812,12.329
-0.168,-0.073,0.965,-10.376,7.263,13.184
-0.160,-0.089,0.972,-12.390,7.507,13.733
-0.149,-0.098,0.980,-12.695,8.057,14.221
-0.136,-0.111,0.983,-11.414,8.362,14.282
-0.127,-0.126,0.980,-9.583,8.423,13.672
-0.115,-0.143,0.973,-7.751,7.446,12.512
-0.108,-0.149,0.968,-6.287,5.981,11.108
-0.102,-0.149,0.957,-5.188,4.272,8.789
-0.108,-0.142,0.943,-4.578,2.502,6.531
-0.128,-0.136,0.936,-4.395,0.244,4.700
-0.146,-0.123,0.934,-4.578,-1.465,3.723
-0.153,-0.104,0.931,-4.700,-2.014,3.418
-0.155,-0.081,0.934,-4.517,-1.648,2.991
-0.152,-0.057,0.936,-4.150,-1.404,1.709
-0.159,-0.034,0.934,-4.028,-1.038,0.610
-0.162,-0.015,0.935,-3.967,-1.099,-0.122
-0.180,-0.003,0.935,-3.845,-1.404,-0.366
-0.176,-0.000,0.941,-3.784,-1.526,0.183
-0.179,0.015,0.943,-3.906,-0.854,1.404
-0.169,0.021,0.953,-3.662,-0.610,2.563
-0.169,0.015,0.969,-3.540,-0.183,3.418
-0.156,0.022,0.975,-4.028,0.916,4.333
-0.147,0.036,0.981,-4.883,1.953,4.822
-0.145,0.046,0.989,-5.981,2.502,4.639
-0.139,0.055,0.995,-7.080,2.808,4.395
-0.135,0.062,0.998,-7.507,2.502,3.906
-0.134,0.062,0.998,-7.568,1.831,3.418
-0.132,0.068,1.000,-7.141,0.793,2.747
-0.131,0.075,1.001,-5.676,0.122,1.770
-0.137,0.079,1.000,-3.967,0.122,0.610
-0.139,0.077,0.989,-1.953,0.427,-0.427
-0.148,0.077,0.972,-0.305,0.366,-1.099
-0.152,0.076,0.962,0.366,0.061,-0.916
-0.156,0.077,0.955,0.122,-0.061,-0.549
-0.164,0.076,0.953,-0.305,-0.244,-0.488
-0.167,0.077,0.956,-0.916,-0.671,0.244
-0.172,0.075,0.961,-0.793,-0.854,0.977
-0.167,0.066,0.960,0.549,-0.244,1.892
-0.162,0.053,0.961,1.770,0.732,2.808
-0.156,0.043,0.960,2.380,1.404,3.662
-0.149,0.034,0.958,2.625,1.709,3.906
-0.141,0.022,0.957,2.441,1.953,4.089
-0.133,0.014,0.957,1.892,1.648,3.967
-0.129,0.015,0.968,0.854,1.343,3.540
-0.123,0.024,0.976,0.488,0.916,2.747
-0.131,0.025,0.979,1.221,0.549,1.465
-0.139,0.027,0.976,2.502,0.183,0.488
-0.146,0.027,0.966,3.784,0.366,-0.122
-0.151,0.026,0.955,4.700,0.671,-0.488
-0.156,0.026,0.949,4.639,0.916,-0.488
-1.372,0.529,0.645,-332.153,-157.654,-68.115
-1.448,1.280,0.801,-402.039,-91.553,39.307
-1.215,1.426,1.135,-329.834,-19.836,72.083
-0.267,1.309,1.145,-163.879,50.720,120.361
0.082,1.195,1.180,-10.437,106.750,122.253
0.195,0.757,1.157,96.252,135.925,114.319
0.366,0.553,1.161,153.198,126.587,88.135
0.487,0.416,1.114,173.340,101.074,46.997
0.490,0.339,1.070,174.988,70.068,3.052
0.379,0.266,1.019,174.988,41.199,-44.189
0.244,0.245,0.885,169.250,18.005,-84.839
0.121,0.394,0.786,146.423,-3.662,-110.840
-0.096,0.546,0.756,113.953,-28.320,-125.244
-0.355,0.509,0.841,84.656,-54.504,-127.075
-0.516,0.505,0.856,66.162,-68.665,-106.628
-0.559,0.536,0.857,50.842,-71.289,-75.806
-0.505,0.563,0.848,36.987,-64.514,-44.556
-0.424,0.621,0.876,23.437,-50.903,-20.020
-0.373,0.676,0.876,15.869,-33.325,-4.211
-0.362,0.711,0.863,14.526,-16.418,5.554
-0.338,0.748,0.850,15.686,-4.150,15.015
-0.306,0.756,0.815,16.968,2.258,24.475
-0.260,0.726,0.786,15.747,4.578,33.936
-0.225,0.671,0.781,12.024,4.028,43.823
-0.188,0.618,0.784,7.690,3.784,54.138
-0.138,0.572,0.783,4.822,5.188,63.293
-0.093,0.526,0.796,2.563,8.240,70.679
-0.056,0.496,0.818,-0.488,11.841,75.928
-0.027,0.431,0.848,-2.625,14.526,78.735
0.034,0.346,0.854,-2.197,15.442,79.590
0.045,0.256,0.897,-2.563,13.611,78.247
0.056,0.237,0.931,-4.089,11.108,74.341
0.059,0.222,0.963,-5.066,10.559,67.139
0.012,0.165,0.995,-5.432,11.353,59.326
-0.039,0.117,1.022,-5.066,13.245,56.274
-0.078,0.047,1.033,-4.333,16.418,58.777
-0.079,-0.006,1.045,-4.944,20.020,66.223
-0.027,-0.029,1.064,-6.592,22.644,75.073
0.029,-0.053,1.069,-7.019,25.513,81.116
0.113,-0.111,1.073,-6.531,27.039,80.994
0.134,-0.166,1.086,-7.874,25.391,75.684
0.153,-0.169,1.098,-11.353,21.484,66.711
0.143,-0.147,1.119,-14.038,17.639,55.176
0.127,-0.115,1.130,-13.489,14.832,42.114
0.076,-0.096,1.131,-10.193,12.085,28.809
0.013,-0.093,1.105,-5.737,8.545,17.883
-0.059,-0.105,1.084,-0.793,3.906,11.047
-0.117,-0.112,1.063,5.127,-0.183,9.766
-0.163,-0.133,1.045,12.207,-2.869,12.634
-0.182,-0.172,1.012,20.874,-3.052,18.433
-0.177,-0.234,0.962,28.809,-1.404,25.757
-0.162,-0.301,0.910,32.532,0.671,32.959
-0.138,-0.367,0.864,31.006,2.319,39.185
-0.094,-0.404,0.843,24.292,2.075,44.067
-0.066,-0.423,0.841,13.550,2.014,45.044
-0.075,-0.429,0.864,0.183,2.502,42.786
-0.084,-0.426,0.908,-12.878,1.526,40.649
-0.097,-0.411,0.956,-23.254,0.488,39.978
-0.105,-0.380,1.007,-28.320,-0.549,40.649
-0.077,-0.326,1.047,-28.931,-0.793,39.978
-0.072,-0.270,1.067,-25.940,0.244,36.621
-0.096,-0.227,1.073,-19.653,0.916,31.006
-0.120,-0.204,1.065,-11.353,0.366,25.757
-0.145,-0.187,1.048,-3.052,-1.343,22.217
-0.163,-0.177,1.034,5.615,-2.563,20.447
-0.171,-0.182,1.007,13.367,-2.686,19.714
-0.154,-0.150,0.979,18.433,-2.441,19.470
-0.156,-0.145,0.938,20.447,-2.197,17.944
-0.162,-0.145,0.911,18.372,-3.845,17.212
-0.169,-0.161,0.912,13.428,-6.836,18.127
-0.170,-0.177,0.921,7.141,-8.850,20.020
-0.152,-0.160,0.959,1.099,-9.277,21.667
-0.129,-0.137,0.990,-0.854,-8.484,21.851
-0.142,-0.154,1.008,2.258,-7.019,20.081
-0.120,-0.136,1.000,7.080,-4.761,18.433
-0.107,-0.136,0.974,11.108,-3.235,15.625
-0.113,-0.149,0.948,13.123,-3.357,11.658
-0.121,-0.164,0.924,12.329,-4.028,7.996
-0.126,-0.163,0.916,9.216,-4.761,5.554
-0.110,-0.128,0.928,5.066,-5.310,2.930
-0.097,-0.080,0.942,0.610,-4.700,-0.916
-0.111,-0.032,0.952,-3.418,-4.578,-5.310
-0.137,0.013,0.969,-5.798,-6.042,-8.484
-0.163,0.046,0.980,-6.165,-7.568,-10.071
-0.179,0.061,0.988,-4.272,-7.874,-9.277
-0.190,0.070,0.984,-0.732,-6.653,-6.592
-0.187,0.067,0.972,3.967,-4.395,-3.662
-0.170,0.066,0.964,7.629,-2.319,-1.343
-0.154,0.071,0.955,9.521,-0.183,0.244
-0.148,0.068,0.940,10.254,1.526,0.916
-0.147,0.059,0.928,9.583,1.770,1.648
-0.147,0.048,0.924,7.568,1.282,2.258
-0.144,0.039,0.922,5.310,0.977,3.113
-0.140,0.025,0.922,3.601,1.465,3.662
-0.132,0.016,0.927,2.197,2.563,3.906
-0.121,0.018,0.932,1.038,3.113,2.930
-0.123,0.019,0.937,-0.061,2.991,1.587
-0.127,0.016,0.936,-0.549,3.174,0.366
-0.130,0.013,0.935,-1.221,3.357,-0.671
-0.130,0.013,0.938,-2.747,3.113,-1.404
-0.134,0.018,0.945,-4.028,2.319,-1.709
-0.140,0.031,0.957,-4.639,1.343,-2.075
-0.150,0.041,0.970,-4.456,0.916,-2.258
-0.159,0.041,0.976,-3.845,1.160,-2.136
-0.169,0.047,0.978,-2.686,1.343,-1.282
-0.172,0.045,0.976,-1.404,1.282,0.122
-0.172,0.041,0.981,-1.038,0.854,1.587
-0.170,0.041,0.985,-0.854,0.488,2.991
-0.172,0.042,0.984,0.122,0.916,4.150
-0.162,0.033,0.972,0.977,1.709,4.822
-0.162,0.037,0.969,0.671,1.526,5.371
-0.165,0.031,0.968,0.061,1.160,5.737
-0.164,0.030,0.965,-0.366,1.038,5.981
-0.157,0.023,0.956,-0.854,0.610,5.981
-0.160,0.020,0.961,-1.709,-0.061,5.676
-0.155,0.017,0.965,-2.380,-0.305,5.371
-0.149,0.017,0.971,-3.052,0.183,4.822
-0.150,0.018,0.972,-3.357,0.488,3.967
-0.144,0.020,0.971,-3.113,0.854,3.113
0.307,-1.484,1.105,-9.949,-37.048,-12.024
0.339,-1.543,1.076,9.949,-37.659,-36.682
0.419,-1.568,1.012,32.532,-27.527,-63.965
0.442,-1.607,0.919,53.589,-13.245,-93.689
0.438,-1.592,0.836,69.214,-2.991,-120.361
0.475,-1.486,0.806,76.599,3.662,-141.479
0.494,-1.328,0.801,79.529,11.169,-160.706
0.499,-0.797,0.824,77.759,24.658,-189.819
0.533,-0.404,0.947,68.359,27.588,-198.059
0.498,-0.024,0.991,58.533,29.846,-204.468
0.382,0.860,1.244,41.199,17.578,-199.402
0.272,1.234,1.411,33.997,8.972,-193.848
0.069,1.466,1.548,33.508,0.427,-184.753
-0.105,1.618,1.632,39.612,-4.822,-165.283
-0.246,1.633,1.680,50.659,-6.531,-134.460
-0.305,1.583,1.714,64.697,-4.883,-98.511
-0.232,1.571,1.700,81.726,3.662,-64.758
-0.137,1.516,1.610,102.051,17.822,-43.030
0.168,3.857,-1.338,110.229,29.236,-21.057
-2.561,3.408,3.032,-22.217,73.730,90.698
-1.182,1.364,0.281,6.104,126.770,129.028
0.601,0.780,1.434,40.405,43.640,183.716
0.117,1.600,1.359,68.970,34.851,168.518
1.026,1.101,0.855,98.328,87.585,109.985
0.815,0.418,0.758,63.477,48.523,33.081
0.278,0.289,0.949,21.362,-10.559,-5.127
0.149,0.334,1.012,5.127,-18.982,-22.339
0.118,0.449,0.874,-9.766,-14.099,-31.921
0.073,0.417,0.855,-12.146,-20.386,-46.570
-0.059,0.414,0.925,-14.221,-25.696,-66.345
-0.134,0.461,0.991,-24.719,-23.071,-79.651
-0.189,0.483,1.053,-31.616,-18.127,-81.177
-0.266,0.483,1.087,-31.067,-16.418,-70.618
-0.289,0.438,1.075,-28.809,-20.203,-49.133
-0.285,0.417,1.091,-30.334,-27.710,-23.437
-0.240,0.393,1.087,-33.752,-32.471,5.127
-0.209,0.382,1.120,-38.757,-31.555,28.381
-0.168,0.367,1.138,-42.603,-25.818,46.326
-0.124,0.355,1.136,-42.847,-18.616,62.683
-0.060,0.363,1.137,-40.161,-13.855,76.782
-0.005,0.363,1.150,-36.011,-11.047,85.693
0.002,0.334,1.138,-31.738,-7.507,90.393
0.015,0.312,1.117,-28.687,-3.906,94.788
0.032,0.281,1.108,-28.015,-2.441,98.816
0.029,0.227,1.121,-30.457,-3.296,102.356
0.011,0.158,1.133,-33.203,-5.371,108.154
0.006,0.112,1.151,-33.875,-6.470,116.516
0.048,0.058,1.176,-31.677,-5.249,125.366
0.077,-0.052,1.162,-25.879,-3.418,133.118
0.103,-0.162,1.143,-19.897,-2.502,138.977
0.146,-0.280,1.113,-15.076,-2.197,143.616
0.176,-0.411,1.072,-12.268,-2.380,146.851
0.206,-0.541,1.029,-12.695,-2.319,148.071
0.259,-0.642,0.991,-18.127,-2.380,145.325
0.295,-0.712,0.973,-27.588,-3.906,137.207
0.295,-0.757,0.958,-38.513,-6.348,124.939
0.266,-0.775,0.939,-47.668,-8.484,111.145
0.214,-0.795,0.909,-53.406,-11.047,97.229
0.173,-0.809,0.891,-56.580,-12.878,85.388
0.133,-0.801,0.884,-57.861,-12.939,74.707
0.089,-0.791,0.868,-56.152,-11.047,63.965
0.038,-0.790,0.842,-51.514,-8.240,54.810
0.007,-0.774,0.812,-45.593,-5.493,47.791
-0.015,-0.741,0.795,-41.077,-3.967,41.260
-0.051,-0.711,0.792,-36.865,-3.784,34.790
-0.100,-0.683,0.800,-32.288,-4.822,28.931
-0.129,-0.642,0.812,-26.367,-5.005,24.292
-0.157,-0.615,0.823,-19.653,-3.906,19.897
-0.181,-0.583,0.826,-13.550,-2.625,16.357
-0.193,-0.545,0.830,-7.935,-1.282,13.062
-0.195,-0.502,0.831,-3.601,1.221,8.972
-0.196,-0.441,0.838,-0.793,3.662,3.723
-0.193,-0.368,0.861,0.061,3.967,-2.136
-0.202,-0.293,0.891,-0.610,2.502,-8.179
-0.228,-0.216,0.938,-1.648,-0.061,-13.794
-0.258,-0.156,0.979,-1.465,-2.563,-17.517
-0.283,-0.108,1.015,0.488,-5.371,-16.968
-0.291,-0.071,1.042,5.188,-7.263,-13.489
-0.291,-0.047,1.048,11.536,-6.897,-8.789
-0.279,-0.031,1.046,17.090,-5.920,-3.845
-0.250,-0.009,1.041,20.813,-5.249,-0.122
-0.218,0.004,1.036,22.705,-4.700,2.197
-0.198,0.018,1.029,22.095,-4.150,2.686
-0.189,0.035,1.030,19.226,-4.395,1.587
-0.179,0.060,1.037,15.564,-5.493,-0.427
-0.181,0.075,1.042,13.000,-6.165,-2.319
-0.186,0.076,1.040,11.963,-6.348,-3.845
-0.189,0.068,1.032,11.414,-6.531,-4.700
-0.186,0.060,1.017,11.292,-6.165,-4.822
-0.172,0.053,1.001,10.681,-5.249,-4.578
-0.154,0.050,0.984,9.644,-4.089,-5.249
-0.145,0.053,0.966,7.141,-3.052,-7.019
-0.143,0.059,0.957,3.845,-2.808,-8.972
-0.147,0.072,0.954,0.061,-2.930,-10.742
-0.149,0.076,0.957,-2.502,-3.052,-11.597
-0.153,0.083,0.960,-3.479,-2.441,-11.719
-0.152,0.080,0.960,-3.784,-1.770,-11.902
-0.159,0.074,0.957,-4.028,-1.465,-11.719
-0.164,0.065,0.954,-4.089,-1.038,-10.559
-0.163,0.056,0.947,-3.906,0.061,-8.789
-0.157,0.047,0.942,-4.089,0.916,-6.958
-0.151,0.046,0.939,-4.578,1.526,-5.005
-0.147,0.045,0.938,-4.822,1.465,-3.845
-0.148,0.036,0.941,-4.395,1.526,-2.808
-0.146,0.030,0.948,-3.967,1.343,-2.014
-0.143,0.021,0.945,-2.625,1.221,-0.977
-0.136,0.016,0.944,-1.099,1.099,-0.244
-0.129,0.014,0.940,0.183,0.671,0.305
-0.132,0.004,0.937,0.732,-0.244,0.366
-0.137,0.003,0.937,0.244,-1.770,0.671
-0.146,-0.000,0.936,0.000,-2.686,0.732
-0.150,0.000,0.935,-0.122,-3.235,0.549
-0.158,0.006,0.937,-0.244,-3.723,-0.061
-0.170,0.005,0.941,-0.244,-3.540,-0.488
-0.184,0.006,0.939,-0.061,-3.113,-0.671
-0.190,0.010,0.937,-0.183,-2.625,-0.793
-0.195,0.013,0.938,-0.427,-2.197,-0.427
-0.200,0.019,0.944,-0.671,-1.953,-0.061
-0.199,0.022,0.945,-0.366,-1.343,0.366
-3.431,0.475,-1.181,13.916,21.667,18.066
-0.854,1.479,1.282,-87.219,38.208,87.158
-0.004,0.777,1.376,-23.376,53.345,101.196
0.386,1.028,1.067,71.167,64.392,87.158
0.770,1.343,0.401,88.318,89.172,47.180
0.523,0.691,0.557,41.626,37.415,-18.860
0.037,0.515,0.733,20.508,-16.724,-47.058
-0.167,0.600,0.769,21.301,-19.287,-44.189
-0.107,0.609,0.756,27.405,-8.850,-35.095
-0.106,0.575,0.686,23.621,-6.775,-28.442
-0.129,0.582,0.691,13.123,-8.850,-26.917
-0.206,0.616,0.765,-2.075,-13.855,-26.978
-0.226,0.683,0.859,-15.747,-18.799,-23.865
-0.244,0.722,0.918,-22.278,-20.081,-18.127
-0.255,0.704,0.965,-23.193,-19.714,-9.644
-0.224,0.666,0.960,-21.362,-16.785,1.160
-0.241,0.622,0.970,-21.118,-14.282,11.169
-0.157,0.531,0.970,-19.836,-3.540,35.400
-0.093,0.459,0.960,-18.188,1.526,44.983
-0.014,0.387,0.937,-16.113,5.066,50.781
0.018,0.343,0.932,-16.785,4.944,51.819
-0.045,0.304,0.955,-19.226,2.380,49.072
-0.106,0.239,0.970,-18.555,3.479,48.340
-0.109,0.194,0.987,-16.541,10.437,52.124
-0.125,0.155,0.974,-16.357,18.433,58.105
-0.155,0.113,0.953,-15.198,23.865,67.932
-0.142,0.079,0.935,-14.038,27.100,80.872
-0.134,0.042,0.922,-16.296,30.212,93.689
-0.141,0.003,0.935,-20.874,31.555,105.652
-0.119,-0.061,0.935,-23.437,33.936,118.469
-0.096,-0.120,0.931,-24.963,36.865,128.418
-0.088,-0.176,0.970,-26.489,40.100,135.681
-0.053,-0.251,1.005,-25.085,46.021,141.724
0.008,-0.309,1.004,-20.874,53.589,148.071
0.109,-0.349,1.009,-19.043,57.007,150.330
0.160,-0.391,0.984,-23.499,56.763,144.653
0.145,-0.402,0.978,-32.532,50.537,134.338
0.110,-0.423,1.017,-40.527,40.955,124.573
0.095,-0.471,1.078,-44.556,32.776,118.347
0.093,-0.530,1.136,-44.128,26.917,115.295
0.079,-0.584,1.177,-38.940,22.095,112.305
0.086,-0.617,1.182,-31.250,20.142,106.873
0.083,-0.641,1.157,-24.597,21.240,96.008
0.049,-0.637,1.118,-21.484,19.653,82.153
-0.008,-0.621,1.110,-19.897,14.404,69.458
-0.059,-0.629,1.112,-15.503,9.094,59.937
-0.102,-0.643,1.113,-8.789,6.592,53.711
-0.127,-0.643,1.104,-0.427,6.836,49.988
-0.113,-0.606,1.105,6.775,9.155,45.410
-0.068,-0.557,1.079,10.071,11.536,38.025
-0.147,-0.458,1.055,9.827,8.057,26.123
-0.182,-0.397,1.028,9.094,3.357,15.564
-0.232,-0.328,1.031,7.080,-0.671,9.216
-0.264,-0.262,1.057,4.272,-4.700,5.493
-0.280,-0.207,1.072,5.737,-7.935,4.028
-0.298,-0.189,1.057,11.658,-9.155,4.211
-0.265,-0.159,1.047,17.334,-8.423,5.310
-0.238,-0.133,1.021,21.362,-6.714,5.615
-0.211,-0.112,1.001,22.583,-5.676,4.456
-0.186,-0.084,0.991,21.057,-4.639,2.808
-0.177,-0.057,0.993,17.517,-4.089,0.549
-0.179,-0.036,0.993,13.672,-4.028,-1.709
-0.172,-0.016,0.994,9.888,-3.296,-3.357
-0.166,0.001,0.991,5.981,-2.747,-5.066
-0.161,0.016,0.997,2.686,-2.747,-6.226
-0.157,0.029,1.001,-0.122,-2.930,-6.409
-0.136,0.040,1.006,-2.380,-2.563,-5.798
-0.113,0.051,1.009,-3.784,-2.502,-5.676
-0.097,0.061,1.008,-4.272,-2.563,-6.714
-0.090,0.068,1.003,-4.761,-2.563,-8.057
-0.089,0.078,1.000,-5.005,-2.625,-9.705
-0.090,0.082,0.991,-4.700,-2.625,-10.559
-0.099,0.087,0.981,-4.150,-2.808,-10.681
-0.095,0.089,0.974,-3.296,-2.930,-11.047
-0.098,0.097,0.970,-2.747,-2.991,-11.169
-0.110,0.102,0.961,-1.892,-2.686,-11.292
-0.122,0.101,0.945,-0.488,-2.319,-11.169
-0.133,0.097,0.933,0.244,-2.197,-10.315
-0.140,0.092,0.926,0.244,-2.075,-8.545
-0.138,0.084,0.921,0.610,-1.648,-6.104
-0.135,0.070,0.917,0.977,-1.221,-4.028
-0.131,0.054,0.914,0.916,-0.793,-2.380
-0.124,0.046,0.913,0.305,-0.427,-1.526
-0.117,0.044,0.920,-0.183,-0.183,-0.977
-0.114,0.046,0.927,-1.099,-0.061,-0.549
-0.121,0.047,0.932,-2.197,-0.488,-0.916
-0.130,0.051,0.939,-3.479,-1.343,-0.977
-0.143,0.056,0.955,-4.150,-2.502,-0.488
-0.151,0.062,0.975,-4.333,-3.113,0.305
-0.157,0.060,0.986,-2.991,-2.991,1.282
-0.159,0.051,0.984,0.671,-2.441,2.319
-0.157,0.039,0.968,4.211,-1.648,2.808
-0.155,0.030,0.948,5.981,-1.038,2.747
-0.151,0.025,0.934,5.554,-1.099,2.258
-0.155,0.026,0.928,3.479,-1.709,1.038
-0.164,0.032,0.932,0.793,-2.319,-0.244
-0.179,0.037,0.940,-1.892,-2.502,-0.854
-0.194,0.043,0.951,-3.357,-2.502,-1.099
-0.196,0.048,0.962,-3.479,-2.136,-0.122
-0.193,0.046,0.966,-2.563,-1.038,1.465
-0.186,0.037,0.963,-1.160,0.549,2.686
-0.175,0.030,0.957,-0.366,1.831,3.357
-0.169,0.028,0.956,-0.793,2.625,3.784
-0.161,0.031,0.962,-2.075,2.686,3.723
-0.157,0.033,0.965,-3.662,2.563,3.296
-0.155,0.036,0.970,-4.150,2.075,2.747
-0.149,0.039,0.975,-4.211,1.648,1.648
-0.154,0.041,0.975,-4.150,1.648,0.183
-0.153,0.048,0.974,-3.967,1.587,-0.427
-0.155,0.056,0.974,-3.845,1.221,-0.854
-0.158,0.063,0.977,-4.028,0.732,-1.099
-0.159,0.075,0.981,-4.089,0.366,-1.343
-0.164,0.082,0.984,-3.540,0.122,-1.404
-0.172,0.084,0.985,-2.197,0.061,-1.038
-0.170,0.089,0.983,-0.366,0.427,0.244
-0.166,0.089,0.981,1.099,0.610,1.221
-0.166,0.089,0.980,2.014,0.244,1.953
-0.170,0.082,0.974,3.296,0.000,2.625
-0.170,0.074,0.964,4.211,-0.061,3.174
-3.447,-0.325,-0.886,-252.258,-75.745,52.917
-0.201,1.812,-3.888,-360.596,194.580,85.083
0.400,1.776,-0.099,-45.959,164.429,84.412
0.305,1.700,0.110,8.057,70.862,70.251
-0.190,1.370,-0.165,-8.423,52.063,46.265
0.035,1.000,-0.208,28.870,23.865,8.789
0.305,0.980,-0.312,42.542,5.676,-7.446
0.315,1.036,-0.460,40.649,-9.399,-27.466
0.297,1.036,-0.578,62.805,-25.513,-48.828
0.328,1.087,-0.714,116.211,-38.513,-59.570
0.359,1.084,-0.731,143.250,-47.913,-63.843
0.347,1.000,-0.597,131.470,-57.800,-65.796
0.308,1.027,-0.529,107.666,-56.030,-58.167
0.289,1.095,-0.470,92.102,-51.575,-46.936
0.289,1.150,-0.408,88.928,-48.523,-35.156
0.301,1.155,-0.361,92.102,-45.288,-24.719
0.309,1.079,-0.335,98.267,-42.175,-18.250
0.310,1.003,-0.334,101.685,-38.086,-12.024
0.308,0.922,-0.333,98.694,-31.738,-4.883
0.305,0.871,-0.323,86.121,-24.719,3.235
0.300,0.841,-0.265,66.162,-16.602,10.803
0.294,0.823,-0.180,45.776,-4.761,15.320
0.296,0.841,-0.099,28.687,10.742,17.822
0.316,0.869,-0.015,17.334,25.330,17.334
0.325,0.871,0.099,13.123,37.537,14.099
0.328,0.871,0.195,14.587,45.776,11.108
0.332,0.925,0.245,21.729,47.852,10.559
0.347,0.952,0.282,38.696,46.814,8.911
0.352,0.927,0.302,58.105,45.776,4.944
0.350,0.900,0.305,69.702,47.363,1.770
0.341,0.868,0.304,73.669,50.476,-0.488
0.335,0.850,0.324,70.984,53.528,0.244
0.333,0.821,0.358,63.110,56.946,3.845
0.345,0.799,0.393,50.659,61.768,9.216
0.358,0.774,0.430,36.011,66.528,15.320
0.366,0.768,0.463,21.790,69.397,20.752
0.375,0.785,0.489,8.362,70.313,25.818
0.379,0.793,0.532,-2.991,69.458,29.602
0.371,0.842,0.572,-10.986,67.078,32.654
0.365,0.876,0.600,-9.705,64.270,34.729
0.364,0.874,0.635,2.930,61.157,35.156
0.371,0.859,0.652,18.677,58.105,34.302
0.376,0.803,0.652,31.189,55.420,31.921
0.362,0.737,0.668,40.039,53.101,28.687
0.349,0.683,0.665,43.640,51.331,26.306
0.330,0.635,0.673,40.039,50.415,24.841
0.319,0.608,0.693,29.175,50.354,24.536
0.316,0.606,0.701,13.428,50.476,26.184
0.308,0.634,0.726,-1.892,49.377,29.419
0.312,0.666,0.744,-14.404,47.791,32.043
0.299,0.706,0.763,-23.193,45.471,32.715
0.283,0.758,0.750,-25.085,43.152,32.227
0.260,0.778,0.744,-18.127,40.344,30.396
0.250,0.766,0.726,-5.859,37.415,27.954
0.241,0.734,0.704,4.822,33.691,25.024
0.235,0.704,0.676,10.132,28.748,21.362
0.240,0.690,0.656,11.353,22.705,17.578
0.240,0.726,0.626,10.803,15.991,15.015
0.245,0.759,0.607,10.986,8.667,11.719
0.233,0.787,0.603,13.123,3.845,7.874
0.225,0.799,0.588,16.968,2.808,3.662
0.236,0.793,0.571,21.545,4.028,0.183
0.241,0.784,0.562,23.804,5.249,-2.136
0.242,0.774,0.545,23.743,5.737,-3.052
0.241,0.774,0.528,23.621,6.104,-3.540
0.241,0.783,0.517,22.888,7.080,-3.906
0.239,0.790,0.501,20.691,8.179,-4.272
0.252,0.803,0.488,16.357,9.155,-3.601
0.259,0.839,0.475,10.437,9.888,-1.770
0.267,0.871,0.470,5.310,10.681,0.244
0.282,0.889,0.469,2.136,10.559,1.587
0.287,0.892,0.475,0.916,9.521,2.258
0.286,0.884,0.476,1.404,8.057,1.892
0.287,0.884,0.471,2.808,7.690,1.465
0.294,0.880,0.463,4.822,7.568,0.549
0.291,0.872,0.452,7.751,6.409,-0.977
0.294,0.855,0.450,10.742,3.906,-2.075
0.288,0.844,0.434,12.573,0.244,-2.747
0.283,0.833,0.429,13.245,-3.113,-3.418
0.280,0.835,0.422,12.146,-6.775,-4.272
0.269,0.846,0.410,10.437,-9.460,-5.371
0.270,0.868,0.376,8.423,-10.376,-6.775
0.263,0.897,0.361,7.568,-11.108,-8.118
0.246,0.918,0.344,7.446,-11.780,-9.094
0.242,0.933,0.322,7.874,-11.597,-9.094
0.239,0.931,0.323,8.484,-11.414,-8.728
0.236,0.932,0.312,9.033,-10.437,-7.874
0.231,0.926,0.321,10.193,-9.033,-6.409
0.234,0.919,0.330,11.230,-7.263,-4.883
0.244,0.906,0.340,12.512,-5.005,-3.113
0.254,0.881,0.350,13.428,-2.930,-2.563
0.268,0.867,0.354,12.329,-2.319,-2.197
0.280,0.868,0.349,9.583,-2.258,-1.465
0.279,0.875,0.352,7.446,-2.686,-1.160
0.286,0.878,0.350,5.737,-3.540,-0.977
0.289,0.885,0.353,4.272,-4.578,-0.854
0.288,0.893,0.353,2.686,-5.920,-0.977
0.287,0.905,0.347,2.686,-7.446,-1.343
0.286,0.908,0.351,3.906,-8.728,-1.648
0.279,0.893,0.350,5.188,-9.399,-2.258
0.269,0.878,0.345,5.676,-9.521,-2.380
0.259,0.871,0.344,5.127,-9.216,-1.892
0.255,0.862,0.336,3.296,-8.179,-1.221
0.257,0.861,0.336,0.061,-7.080,-0.366
0.254,0.865,0.339,-3.174,-5.737,0.793
0.253,0.872,0.341,-5.127,-4.639,1.648
0.248,0.878,0.342,-6.287,-3.662,2.380
0.243,0.872,0.340,-7.324,-2.930,2.930
0.244,0.885,0.337,-8.057,-2.441,3.784
0.243,0.898,0.339,-8.606,-2.075,3.845
0.241,0.906,0.343,-6.958,-1.160,2.808
0.244,0.907,0.352,-4.700,-0.305,1.831
0.243,0.913,0.356,-2.747,0.122,1.282
0.240,0.910,0.356,-1.038,0.488,0.610
0.239,0.900,0.357,0.793,0.793,0.305
0.238,0.890,0.356,2.136,0.732,0.305
0.235,0.880,0.359,2.563,1.282,0.793
0.237,0.884,0.362,1.709,2.319,1.465
0.238,0.878,0.368,1.465,3.479,1.831
-0.908,1.817,-1.271,-268.250,212.341,97.961
0.035,0.721,-1.636,-174.255,150.085,49.927
-0.102,1.371,-0.508,-72.205,73.975,65.369
-0.233,1.452,-0.208,-16.602,27.283,42.542
-0.164,1.422,-0.452,24.292,19.287,17.151
-0.084,1.271,-0.526,80.872,-7.874,-11.902
-0.012,1.244,-0.663,138.611,-44.434,-35.767
-0.044,1.077,-0.630,169.006,-74.646,-53.406
-0.112,0.932,-0.753,170.471,-87.463,-68.298
-0.022,0.848,-0.772,151.794,-75.012,-71.655
-0.027,0.919,-0.654,127.747,-63.538,-62.073
-0.009,0.928,-0.527,103.943,-50.476,-51.208
-0.022,0.901,-0.476,85.449,-31.738,-40.588
-0.004,0.933,-0.448,68.054,-13.062,-28.503
0.024,0.972,-0.373,52.124,1.526,-18.555
0.029,0.987,-0.340,41.138,14.465,-14.587
0.048,1.005,-0.328,34.912,26.428,-13.611
0.053,1.038,-0.294,33.813,36.133,-14.465
0.058,1.069,-0.281,38.818,45.349,-16.479
0.077,1.068,-0.249,50.476,54.016,-19.653
0.097,1.042,-0.212,64.575,62.317,-23.682
0.112,0.985,-0.186,76.965,69.946,-28.137
0.134,0.930,-0.144,84.351,76.843,-31.189
0.165,0.879,-0.093,85.266,83.130,-32.715
0.203,0.840,-0.046,80.933,87.769,-31.433
0.198,0.790,-0.005,72.449,90.942,-27.893
0.219,0.792,0.031,58.472,93.079,-22.949
0.251,0.818,0.060,41.565,92.896,-17.883
0.246,0.835,0.126,28.320,91.980,-13.123
0.215,0.868,0.218,18.738,92.285,-7.446
0.216,0.909,0.264,13.245,96.436,-2.319
0.249,0.927,0.318,14.282,101.318,0.977
0.286,0.944,0.388,19.714,105.530,2.808
0.315,0.961,0.447,26.062,109.131,2.441
0.349,0.959,0.483,33.020,111.633,-0.122
0.382,0.959,0.519,40.100,111.450,-3.357
0.400,0.947,0.573,46.326,109.985,-6.531
0.439,0.917,0.622,50.659,106.689,-7.996
0.474,0.890,0.669,51.636,100.220,-6.042
0.499,0.863,0.700,44.983,90.515,-0.732
0.504,0.844,0.722,32.776,78.552,8.179
0.502,0.828,0.730,18.066,65.491,18.616
0.470,0.809,0.736,4.517,53.711,28.870
0.435,0.789,0.724,-6.165,43.884,37.292
0.391,0.773,0.710,-14.099,36.316,42.908
0.358,0.746,0.694,-18.066,30.396,45.532
0.335,0.741,0.671,-20.264,25.818,45.776
0.295,0.750,0.647,-21.301,21.973,42.786
0.258,0.763,0.611,-19.165,18.921,36.499
0.237,0.787,0.572,-12.939,17.212,28.259
0.211,0.801,0.530,-5.432,15.503,20.264
0.186,0.828,0.505,0.488,14.038,14.343
0.165,0.845,0.489,6.104,14.587,9.583
0.172,0.831,0.484,11.353,17.090,6.348
0.183,0.816,0.473,13.000,19.714,6.409
0.187,0.799,0.475,9.888,20.386,8.728
0.172,0.812,0.461,4.150,20.447,11.108
0.185,0.829,0.443,-0.488,22.095,12.512
0.201,0.833,0.446,-2.563,23.743,12.390
0.196,0.855,0.434,-3.845,25.391,11.230
0.201,0.856,0.456,-2.502,26.428,8.972
0.223,0.874,0.453,-1.709,26.428,7.935
0.291,0.865,0.451,-3.052,24.109,7.629
0.224,0.910,0.426,-3.723,22.034,9.216
0.202,0.933,0.414,0.000,15.808,9.033
0.229,0.943,0.416,7.690,12.878,5.249
0.241,0.925,0.426,12.207,10.681,3.418
0.241,0.892,0.434,14.038,7.446,3.235
0.234,0.862,0.422,13.123,4.211,2.380
0.231,0.870,0.411,10.742,0.671,2.197
0.238,0.883,0.416,8.850,-2.380,2.808
0.239,0.889,0.421,6.836,-5.005,3.723
0.239,0.880,0.409,4.333,-7.202,3.418
0.230,0.882,0.398,2.686,-9.583,2.747
0.216,0.905,0.387,2.930,-12.939,1.404
0.217,0.922,0.370,5.676,-13.916,-0.488
0.207,0.917,0.354,8.179,-13.733,-1.770
0.194,0.902,0.323,9.216,-13.794,-2.869
0.176,0.909,0.306,10.132,-15.503,-4.028
0.164,0.909,0.304,11.414,-16.418,-5.005
0.159,0.912,0.285,11.963,-15.930,-6.531
0.147,0.913,0.269,12.390,-15.442,-7.629
0.137,0.918,0.262,14.465,-14.832,-8.606
0.146,0.930,0.252,17.029,-13.489,-10.376
0.147,0.932,0.254,18.738,-13.000,-11.658
0.149,0.923,0.263,19.043,-13.428,-11.047
0.156,0.933,0.252,16.113,-13.672,-9.338
0.154,0.936,0.254,12.085,-13.489,-7.080
0.162,0.942,0.260,8.484,-13.062,-4.822
0.167,0.945,0.273,6.042,-12.512,-3.174
0.170,0.951,0.278,5.127,-11.658,-2.441
0.173,0.961,0.292,5.920,-10.132,-1.953
0.185,0.960,0.289,7.629,-8.240,-1.953
0.191,0.959,0.291,9.888,-7.507,-1.892
0.183,0.954,0.298,12.695,-8.667,-1.892
0.179,0.940,0.299,14.832,-9.521,-2.075
0.181,0.926,0.290,15.381,-9.644,-2.197
0.186,0.916,0.294,14.343,-9.521,-2.197
0.181,0.915,0.292,12.329,-9.216,-2.258
0.182,0.916,0.305,9.888,-9.033,-2.014
0.193,0.927,0.308,6.775,-9.155,-0.854
0.197,0.935,0.312,4.333,-10.498,0.122
0.185,0.937,0.310,2.930,-12.939,0.854
0.161,0.948,0.311,3.845,-14.038,2.075
0.167,0.945,0.296,5.737,-12.817,1.953
0.175,0.934,0.283,6.836,-11.292,1.343
0.172,0.928,0.283,7.141,-12.451,1.343
0.157,0.932,0.287,6.470,-14.832,1.160
0.137,0.933,0.289,5.066,-17.029,0.854
0.123,0.940,0.280,3.479,-18.127,0.488
0.118,0.935,0.270,4.456,-17.700,0.305
0.127,0.938,0.270,6.287,-15.869,0.305
0.133,0.936,0.277,6.836,-14.282,0.732
0.126,0.930,0.288,6.775,-13.000,1.221
0.131,0.931,0.294,6.470,-12.268,1.282
0.144,0.924,0.292,4.700,-12.085,1.709
0.141,0.933,0.308,2.258,-11.902,2.747
0.147,0.937,0.315,-0.244,-10.376,3.723
0.157,0.940,0.326,-2.014,-8.972,3.662
-1.559,0.696,-1.143,-123.596,174.072,35.583
-0.247,0.856,-0.931,-90.576,154.602,20.447
0.036,1.492,-0.773,-99.060,51.147,58.838
0.038,1.596,-0.414,-28.137,-3.906,45.593
0.161,1.496,-0.485,47.729,-31.250,25.818
0.027,1.329,-0.684,98.999,-57.068,5.127
-0.021,1.113,-0.838,124.878,-62.317,-13.428
-0.096,0.922,-0.979,135.071,-50.903,-26.245
-0.122,0.831,-0.987,127.808,-35.522,-28.809
-0.127,0.817,-0.873,103.333,-17.639,-23.865
-0.136,0.826,-0.733,68.176,6.531,-13.428
-0.109,0.884,-0.617,32.837,34.302,1.282
-0.043,0.943,-0.524,6.470,57.800,14.832
0.009,0.997,-0.435,-6.714,71.594,21.423
0.047,1.027,-0.359,-6.897,78.125,21.179
0.086,1.043,-0.307,3.662,81.604,15.320
0.114,1.059,-0.302,20.691,82.764,5.737
0.100,1.087,-0.312,38.025,80.994,-5.615
0.077,1.098,-0.327,53.650,78.552,-14.954
0.048,1.083,-0.314,68.420,80.200,-20.325
0.038,1.038,-0.251,81.543,88.684,-22.095
0.068,0.953,-0.163,89.050,101.685,-21.606
0.104,0.884,-0.025,85.754,115.295,-18.188
0.148,0.839,0.098,71.899,128.845,-11.902
0.180,0.845,0.225,55.908,141.357,-5.737
0.235,0.902,0.345,44.373,150.269,-3.479
0.311,0.968,0.463,38.574,154.297,-4.456
0.367,1.016,0.565,41.077,152.588,-6.592
0.397,1.041,0.603,51.086,146.057,-8.301
0.413,1.005,0.637,66.528,136.414,-10.925
0.430,0.966,0.672,77.698,125.549,-13.428
0.432,0.949,0.677,80.444,116.516,-13.916
0.441,0.932,0.697,80.017,106.995,-15.076
0.434,0.885,0.709,75.256,94.788,-14.526
0.409,0.871,0.727,67.383,82.031,-9.216
0.402,0.850,0.758,60.791,72.876,-2.441
0.388,0.798,0.729,52.246,67.505,5.432
0.362,0.773,0.716,45.227,62.622,15.015
0.320,0.707,0.750,38.757,60.242,25.757
0.292,0.704,0.719,27.893,58.716,35.828
0.290,0.665,0.754,19.470,57.739,42.480
0.278,0.658,0.750,12.085,57.068,46.814
0.261,0.664,0.742,8.911,55.298,47.180
0.243,0.666,0.748,8.667,53.101,44.373
0.230,0.659,0.749,8.789,51.697,40.588
0.222,0.647,0.750,9.460,51.025,36.682
0.221,0.641,0.749,7.812,48.767,33.020
0.217,0.631,0.756,7.080,45.715,29.846
0.224,0.617,0.771,6.836,41.931,27.039
0.228,0.630,0.754,4.639,37.170,23.682
0.201,0.638,0.744,5.249,31.372,19.409
0.193,0.655,0.746,8.240,25.513,15.442
0.199,0.678,0.720,9.949,22.461,11.292
0.197,0.696,0.695,12.207,19.287,5.920
0.180,0.722,0.677,14.893,14.709,1.404
0.169,0.752,0.648,17.090,10.437,-1.404
0.162,0.775,0.636,18.860,8.118,-3.418
0.162,0.783,0.623,20.325,8.118,-5.188
0.166,0.780,0.617,20.325,9.094,-5.432
0.177,0.775,0.626,17.944,9.155,-3.601
0.177,0.772,0.632,13.550,8.301,-1.404
0.183,0.774,0.630,7.996,6.775,1.221
0.179,0.781,0.622,3.052,3.967,2.869
0.176,0.801,0.598,1.038,1.099,3.540
0.171,0.820,0.583,2.197,-1.648,2.686
0.165,0.830,0.563,4.456,-4.150,1.343
0.153,0.835,0.538,6.409,-6.897,0.000
0.141,0.833,0.514,8.301,-9.521,-1.648
0.132,0.833,0.494,9.888,-11.108,-3.357
0.128,0.839,0.471,11.169,-11.597,-4.639
0.130,0.834,0.462,11.353,-11.475,-6.287
0.133,0.837,0.455,10.071,-11.108,-7.629
0.133,0.850,0.450,8.423,-11.169,-8.484
0.133,0.856,0.445,7.935,-11.292,-9.583
0.132,0.856,0.441,7.996,-11.536,-10.132
0.137,0.862,0.427,7.019,-11.658,-9.888
0.136,0.866,0.412,4.883,-12.756,-9.460
0.129,0.877,0.405,2.930,-14.587,-8.789
0.123,0.885,0.387,1.709,-15.076,-8.423
0.126,0.888,0.376,1.465,-14.343,-8.240
0.123,0.893,0.368,1.343,-13.916,-8.423
0.120,0.898,0.359,1.343,-13.489,-8.850
0.121,0.905,0.352,0.977,-13.489,-9.033
0.119,0.910,0.352,0.977,-13.428,-9.338
0.123,0.912,0.357,2.686,-12.329,-10.132
0.132,0.905,0.360,4.883,-11.169,-11.230
0.140,0.895,0.364,5.737,-10.681,-11.902
0.140,0.891,0.365,4.944,-10.498,-11.780
0.141,0.887,0.362,3.052,-10.864,-11.169
0.138,0.888,0.363,0.183,-11.292,-9.583
0.134,0.885,0.367,-2.991,-11.108,-7.935
0.137,0.891,0.369,-5.859,-10.498,-6.042
0.135,0.899,0.375,-8.972,-9.827,-4.150
0.133,0.909,0.380,-11.414,-8.789,-2.380
0.125,0.922,0.382,-12.634,-7.935,-0.732
0.131,0.931,0.383,-12.512,-7.141,0.305
0.136,0.933,0.377,-11.108,-6.531,0.305
0.129,0.933,0.375,-8.972,-6.531,-0.183
0.118,0.929,0.369,-6.226,-6.958,-1.221
0.111,0.924,0.364,-3.296,-6.653,-2.197
0.104,0.920,0.364,-0.427,-5.615,-2.808
0.101,0.911,0.366,1.648,-4.395,-3.357
0.099,0.902,0.369,1.953,-2.991,-3.235
0.101,0.895,0.371,0.488,-2.075,-2.625
0.098,0.892,0.373,-2.014,-0.916,-2.197
0.103,0.891,0.375,-3.784,0.732,-1.343
0.107,0.894,0.380,-4.639,1.831,-0.183
0.115,0.900,0.385,-5.005,2.625,0.671
0.122,0.905,0.397,-4.639,3.723,0.793
0.132,0.910,0.412,-4.333,4.395,0.549
0.141,0.916,0.421,-4.089,4.333,0.488
0.141,0.922,0.432,-2.380,3.967,0.732
0.144,0.920,0.437,0.366,3.784,0.366
0.143,0.909,0.435,2.136,3.540,-0.183
0.137,0.901,0.431,2.563,3.174,-0.549
0.135,0.894,0.426,2.319,2.808,-0.610
0.139,0.892,0.424,1.282,2.136,-0.305
0.135,0.888,0.424,-0.427,1.953,0.488
0.135,0.885,0.422,-2.136,2.197,1.282
-0.566,1.137,-1.457,11.414,-217.651,26.184
-0.624,1.136,-1.527,6.897,-194.214,29.480
-1.183,1.079,-1.626,-1.648,-163.086,29.358
-1.101,1.400,-3.731,-49.561,-32.837,41.443
-1.502,0.282,-1.657,-84.534,215.393,39.246
-0.442,0.835,-0.525,-61.340,124.756,19.836
-0.312,1.751,-0.837,-31.372,4.211,16.479
-0.371,1.424,-0.250,63.477,-45.410,-15.930
-0.237,1.245,-0.716,134.155,-51.331,-48.645
-0.132,0.914,-0.877,154.663,-46.021,-70.374
-0.074,0.836,-0.802,145.508,-58.838,-81.787
-0.067,0.817,-0.753,125.305,-58.716,-90.759
-0.004,0.858,-0.599,100.769,-43.579,-88.318
0.037,0.939,-0.492,71.533,-20.142,-75.928
0.081,0.995,-0.426,41.992,-0.122,-56.274
0.105,1.018,-0.421,18.127,14.465,-33.813
0.106,1.055,-0.379,-3.357,20.081,-8.789
0.108,1.070,-0.335,-22.034,23.987,10.437
0.110,1.080,-0.305,-35.400,30.151,21.423
0.089,1.085,-0.279,-42.053,36.926,26.001
0.078,1.068,-0.253,-39.795,45.105,27.100
0.053,1.044,-0.213,-29.053,54.626,25.757
0.037,1.032,-0.179,-13.611,65.857,21.240
0.031,0.968,-0.107,7.812,78.491,13.916
0.047,0.875,-0.017,27.039,89.844,5.798
0.052,0.781,0.050,33.203,97.717,-1.160
0.037,0.745,0.123,29.968,102.234,-8.057
0.045,0.768,0.161,25.146,108.032,-17.639
0.085,0.817,0.211,20.691,114.624,-29.785
0.127,0.883,0.292,18.860,120.605,-39.673
0.150,0.938,0.346,18.860,125.916,-46.082
0.169,0.985,0.432,18.738,132.507,-48.706
0.215,1.000,0.500,15.320,140.198,-45.532
0.347,0.951,0.590,-0.610,138.977,-34.119
0.341,1.025,0.595,-26.978,116.638,-19.470
0.270,1.025,0.594,-34.912,111.755,-6.287
0.244,1.016,0.575,-29.907,112.915,0.305
0.246,1.022,0.604,-19.287,113.464,5.798
0.285,1.013,0.676,-10.559,110.168,11.658
0.331,0.972,0.692,-10.559,102.600,16.052
0.333,0.944,0.700,-15.808,90.576,18.311
0.299,0.943,0.715,-18.188,78.430,18.127
0.267,0.960,0.706,-14.526,69.519,15.808
0.253,0.993,0.687,-4.944,64.697,11.353
0.260,1.000,0.655,10.315,62.134,4.395
0.251,0.986,0.648,29.724,60.425,-2.686
0.237,0.935,0.636,47.913,59.265,-8.789
0.231,0.880,0.626,59.326,58.167,-13.794
0.254,0.839,0.616,62.378,56.396,-15.198
0.237,0.795,0.627,59.204,54.016,-11.414
0.224,0.777,0.608,48.706,50.171,-5.066
0.208,0.771,0.601,34.729,47.302,2.380
0.198,0.771,0.580,19.104,46.448,11.353
0.208,0.788,0.573,4.822,45.044,19.836
0.211,0.820,0.567,-3.662,42.480,27.100
0.203,0.858,0.551,-8.728,39.124,31.860
0.186,0.878,0.536,-9.277,36.499,33.875
0.187,0.875,0.515,-3.723,34.790,32.166
0.171,0.886,0.498,5.737,32.043,28.503
0.154,0.879,0.473,15.991,28.137,22.827
0.144,0.860,0.454,25.269,24.597,16.113
0.141,0.839,0.446,32.837,20.996,10.010
0.136,0.828,0.434,37.781,17.517,5.066
0.136,0.811,0.417,40.527,14.526,0.488
0.137,0.801,0.420,41.443,11.658,-2.563
0.141,0.794,0.416,39.368,9.521,-4.211
0.144,0.798,0.415,35.156,7.812,-5.066
0.147,0.804,0.411,30.090,6.165,-5.615
0.138,0.838,0.406,26.062,4.150,-6.104
0.117,0.885,0.367,22.095,1.648,-6.287
0.098,0.926,0.331,19.653,0.854,-5.615
0.102,0.923,0.307,19.775,0.732,-5.188
0.109,0.925,0.300,18.494,0.549,-4.639
0.117,0.936,0.299,16.174,0.732,-4.456
0.112,0.947,0.304,14.465,0.549,-5.005
0.112,0.947,0.308,14.771,0.671,-7.080
0.128,0.934,0.306,16.174,0.366,-9.338
0.121,0.938,0.313,18.066,-1.953,-11.353
0.112,0.931,0.299,18.921,-5.737,-13.367
0.103,0.941,0.285,16.785,-10.620,-14.893
0.088,0.956,0.265,11.597,-16.174,-15.686
0.079,0.970,0.237,5.615,-20.752,-15.320
0.073,0.981,0.218,1.160,-22.766,-13.916
0.066,0.991,0.208,-1.221,-22.949,-12.512
0.060,1.002,0.210,-1.709,-21.545,-11.292
0.059,0.997,0.206,-1.404,-18.738,-10.559
0.063,0.998,0.212,-0.916,-15.991,-9.521
0.065,0.987,0.214,-0.549,-14.160,-9.155
0.067,0.984,0.210,0.549,-12.634,-8.972
0.074,0.976,0.221,2.014,-11.719,-9.216
0.073,0.974,0.220,2.441,-11.169,-9.766
0.074,0.973,0.222,2.380,-10.559,-10.010
0.077,0.969,0.222,2.075,-10.254,-9.766
0.081,0.973,0.222,1.282,-10.193,-9.644
0.084,0.977,0.225,0.061,-9.766,-9.094
0.084,0.976,0.231,-0.977,-8.728,-8.179
0.082,0.977,0.236,-1.526,-7.385,-6.653
0.091,0.973,0.243,-1.770,-5.493,-4.944
0.092,0.968,0.259,-2.014,-3.906,-2.930
0.091,0.967,0.268,-2.258,-2.869,-1.282
0.090,0.961,0.275,-2.258,-1.953,1.038
0.103,0.957,0.278,-1.953,-0.488,2.869
0.109,0.957,0.289,-2.014,0.610,4.395
0.104,0.958,0.286,-3.052,1.038,5.798
0.101,0.951,0.290,-3.845,1.709,6.897
0.104,0.941,0.293,-4.150,2.502,7.080
0.108,0.939,0.296,-4.150,3.113,7.385
0.117,0.928,0.299,-4.333,3.113,7.080
0.117,0.927,0.302,-5.493,2.502,6.348
0.116,0.928,0.313,-5.920,1.770,5.554
0.117,0.933,0.313,-5.798,1.343,4.883
0.117,0.933,0.313,-5.737,0.732,4.211
0.109,0.939,0.309,-5.981,0.549,4.028
0.105,0.943,0.304,-5.310,1.160,3.662
0.106,0.939,0.305,-3.662,2.686,2.808
0.109,0.935,0.309,-1.526,3.967,1.953
0.108,0.931,0.311,-0.183,4.028,1.892
0.104,0.934,0.311,-0.183,3.296,2.075
0.107,0.940,0.307,-0.183,3.601,1.953
0.854,0.726,1.140,-19.104,63.843,25.818
0.879,0.763,1.140,-25.757,31.799,24.475
0.885,0.813,1.114,-28.625,-4.089,23.376
0.879,0.862,1.043,-26.123,-39.795,23.499
0.852,0.845,0.964,-19.714,-73.425,24.475
0.829,0.783,0.871,-14.099,-106.445,25.574
0.797,0.722,0.802,-14.648,-134.766,26.550
0.773,0.723,0.715,-19.470,-156.250,27.588
0.780,0.759,0.604,-29.785,-171.631,27.649
0.767,0.802,0.537,-41.931,-185.608,24.109
0.716,0.866,0.472,-48.584,-200.012,19.470
0.676,0.924,0.408,-47.913,-215.271,14.526
0.610,0.953,0.331,-40.466,-230.713,7.874
0.506,0.994,0.211,-32.898,-244.263,2.197
0.425,1.048,0.057,-28.137,-254.761,-1.282
0.375,1.062,-0.084,-21.484,-260.071,-3.540
0.333,1.065,-0.177,-13.672,-263.123,-4.822
0.304,1.033,-0.252,-10.620,-266.968,-5.188
0.261,1.012,-0.301,-13.611,-274.902,-5.127
0.213,1.008,-0.352,-19.531,-282.349,-3.784
0.224,1.017,-0.435,-21.606,-287.842,-3.906
0.135,1.139,-0.572,-17.273,-293.640,-3.723
0.031,1.224,-0.796,-4.822,-291.626,-1.526
-0.103,1.286,-0.968,14.648,-278.992,3.174
-0.205,1.253,-1.106,32.654,-256.775,7.385
-0.290,1.241,-1.208,43.213,-227.539,9.338
-2.026,1.162,-1.812,43.640,-196.716,11.169
0.397,1.815,-3.989,-54.321,-39.307,46.265
-1.496,0.036,-0.978,-261.963,15.381,41.931
-0.679,1.070,-0.741,-177.917,-68.298,69.275
-0.125,2.206,-0.505,-54.077,-26.917,85.449
-0.020,1.222,-0.442,58.472,-42.419,17.273
-0.094,1.151,-0.884,73.792,-66.040,-5.310
-0.279,0.940,-1.152,73.242,-81.543,-14.038
-0.236,0.974,-0.900,91.187,-79.895,-30.334
-0.420,0.822,-0.925,101.868,-25.635,-47.791
-0.273,0.648,-0.988,96.680,25.391,-57.800
-0.156,0.587,-0.801,65.063,53.955,-52.124
-0.063,0.637,-0.532,16.602,67.383,-37.354
-0.021,0.706,-0.361,-25.330,75.500,-22.888
0.041,0.749,-0.251,-50.903,80.444,-13.062
0.065,0.768,-0.169,-59.448,82.458,-9.094
0.105,0.818,-0.143,-58.289,81.177,-9.888
0.136,0.865,-0.101,-53.467,78.308,-16.174
0.156,0.924,-0.039,-45.166,76.660,-25.330
0.125,1.017,-0.002,-31.494,78.369,-33.997
0.058,1.032,0.025,-12.207,85.510,-40.527
0.029,1.001,0.072,1.770,95.093,-42.908
0.024,0.960,0.122,6.592,106.750,-41.260
0.042,0.948,0.184,4.150,118.042,-38.574
0.084,0.952,0.259,-2.502,125.732,-36.743
0.121,0.989,0.323,-12.451,130.798,-35.339
0.146,1.043,0.382,-21.973,134.399,-34.424
0.162,1.110,0.443,-26.428,136.292,-33.997
0.182,1.171,0.478,-24.292,135.010,-32.898
0.194,1.208,0.472,-18.494,129.761,-30.762
0.203,1.236,0.467,-12.451,120.911,-26.611
0.192,1.241,0.467,-5.066,110.718,-22.156
0.196,1.201,0.454,4.883,101.929,-17.212
0.197,1.138,0.444,12.024,92.834,-12.146
0.197,1.074,0.421,14.099,84.290,-8.301
0.175,1.037,0.413,12.390,76.233,-5.188
0.148,1.018,0.409,7.751,70.496,-1.770
0.129,0.998,0.407,1.648,67.993,1.770
0.116,0.978,0.437,-4.761,68.481,5.554
0.111,0.981,0.445,-9.460,72.449,8.484
0.111,0.970,0.485,-9.521,78.430,8.484
0.122,0.972,0.486,-6.409,84.412,6.653
0.149,0.966,0.490,-0.122,91.125,3.723
0.156,0.970,0.493,5.920,94.604,1.343
0.161,0.967,0.489,8.728,96.375,1.282
0.179,0.959,0.485,7.385,96.802,3.662
0.198,0.955,0.491,2.686,93.872,7.141
0.211,0.965,0.510,-3.784,87.097,11.536
0.199,0.977,0.502,-11.108,79.102,16.724
0.281,0.956,0.455,-16.418,68.909,21.057
0.194,0.988,0.505,-18.311,54.932,25.085
0.193,0.970,0.419,-11.292,51.697,23.743
0.154,0.992,0.387,-1.160,47.180,20.508
0.157,0.959,0.363,11.780,43.945,18.494
0.159,0.916,0.372,18.311,41.687,15.808
0.164,0.893,0.359,20.569,37.231,13.184
0.167,0.897,0.346,21.667,30.457,11.047
0.150,0.929,0.324,21.118,22.217,9.705
0.132,0.958,0.286,20.752,14.160,8.606
0.114,0.981,0.257,22.705,8.301,8.423
0.102,0.967,0.253,25.146,4.517,9.216
0.087,0.908,0.216,22.095,2.563,9.155
0.041,0.903,0.207,16.113,3.418,7.751
0.057,0.938,0.224,14.099,5.310,7.446
0.083,0.960,0.219,12.268,7.446,10.864
0.085,0.957,0.209,7.935,6.897,14.526
0.077,0.954,0.206,4.333,4.517,17.334
0.084,0.959,0.217,4.517,1.709,17.456
0.090,0.969,0.217,6.653,0.000,16.724
0.095,0.964,0.208,6.531,-3.662,15.259
0.081,0.971,0.192,5.737,-9.155,13.672
0.052,0.977,0.202,6.592,-12.878,11.230
0.052,0.977,0.182,10.254,-13.977,9.888
0.058,0.973,0.175,13.855,-14.282,8.179
0.048,0.958,0.169,17.151,-13.855,5.859
0.043,0.948,0.162,18.982,-13.489,4.028
0.049,0.945,0.155,18.494,-13.367,2.502
0.043,0.942,0.155,16.174,-13.733,0.854
0.046,0.935,0.156,13.855,-13.794,0.061
0.029,0.950,0.172,12.085,-15.015,-0.366
0.024,0.958,0.166,10.254,-16.052,-0.122
0.017,0.972,0.164,8.545,-16.541,0.488
0.023,0.970,0.153,5.798,-16.418,1.099
0.015,0.972,0.151,2.808,-16.846,1.343
0.004,0.977,0.150,1.404,-16.479,1.648
0.000,0.979,0.149,2.686,-13.977,0.977
-0.002,0.969,0.156,6.348,-9.583,-0.366
0.008,0.942,0.170,8.911,-5.493,-1.831
0.011,0.933,0.168,8.362,-3.052,-2.441
0.006,0.940,0.174,6.897,-2.319,-2.991
0.010,0.938,0.176,5.798,-2.014,-3.479
0.010,0.949,0.178,4.761,-1.953,-3.723
0.015,0.945,0.175,4.456,-2.014,-4.517
0.161,1.343,-1.122,-22.583,-403.870,-45.959
-0.009,1.382,-1.339,-27.222,-377.930,-26.367
-0.110,1.411,-1.408,-26.184,-344.727,-7.996
-0.240,1.425,-1.278,-29.053,-316.284,5.981
-0.306,1.426,-1.232,-37.964,-285.645,18.005
-0.368,1.394,-1.244,-50.293,-252.319,26.672
-0.559,1.248,-2.033,-60.974,-215.454,32.837
-0.904,0.916,-1.833,-134.277,-113.953,47.302
-0.904,0.933,-1.185,-176.819,-43.091,36.987
0.046,1.206,-0.895,-96.680,-50.537,35.645
-0.103,1.284,-0.850,-34.607,-71.777,47.668
-0.150,1.081,-0.704,-19.348,-56.213,28.320
-0.191,0.922,-0.853,-14.526,-21.973,10.376
-0.067,0.884,-0.902,4.944,3.540,-10.498
0.006,0.922,-0.791,32.043,-0.183,-34.180
0.026,0.977,-0.761,55.176,7.324,-52.063
0.025,0.958,-0.690,67.261,20.996,-58.777
-0.033,0.922,-0.591,64.758,38.269,-53.040
-0.033,0.907,-0.504,55.664,58.350,-42.725
0.054,0.856,-0.413,45.715,78.186,-34.851
0.107,0.838,-0.317,30.518,93.994,-26.001
0.119,0.833,-0.232,10.437,105.530,-18.311
0.102,0.847,-0.150,-9.888,113.892,-12.390
0.127,0.854,-0.101,-23.743,120.605,-9.094
0.160,0.897,-0.037,-31.799,122.986,-8.484
0.190,0.953,0.013,-35.828,122.925,-10.315
0.191,1.016,0.056,-37.048,121.643,-15.320
0.184,1.101,0.073,-34.485,119.446,-19.958
0.150,1.178,0.087,-25.452,119.507,-23.560
0.111,1.201,0.142,-8.545,122.803,-25.269
0.086,1.209,0.204,8.423,129.639,-24.292
0.087,1.185,0.248,22.705,140.991,-21.118
0.102,1.118,0.309,33.508,152.771,-18.250
0.129,1.056,0.369,38.208,160.645,-15.259
0.152,1.037,0.428,34.424,164.551,-12.390
0.166,1.051,0.476,22.461,166.809,-9.338
0.198,1.071,0.501,8.240,170.105,-7.019
0.254,1.099,0.495,-2.930,173.218,-5.066
0.296,1.163,0.516,-8.484,172.791,-2.319
0.311,1.234,0.540,-10.132,167.969,1.953
0.310,1.285,0.551,-7.019,162.170,7.324
0.344,1.295,0.531,2.869,156.616,14.038
0.395,1.274,0.518,15.503,147.827,23.499
0.378,1.227,0.478,24.902,133.240,36.560
0.355,1.139,0.468,36.133,126.648,48.401
0.368,1.019,0.456,48.645,125.671,55.725
0.380,0.896,0.463,55.908,124.573,60.303
0.356,0.806,0.493,53.589,121.033,64.575
0.334,0.748,0.470,43.945,118.835,67.566
0.323,0.706,0.461,34.180,116.943,68.970
0.297,0.702,0.440,25.574,114.075,70.557
0.257,0.728,0.416,18.982,111.816,72.205
0.231,0.731,0.412,17.029,111.694,71.228
0.236,0.716,0.411,20.020,113.464,68.176
0.243,0.703,0.451,23.499,112.305,63.904
0.254,0.685,0.476,24.353,107.605,58.716
0.248,0.650,0.500,24.902,102.478,51.514
0.235,0.658,0.500,24.109,96.497,43.457
0.212,0.698,0.464,25.513,89.417,35.095
0.182,0.712,0.436,30.823,82.764,28.992
0.196,0.688,0.424,37.781,76.599,24.109
0.203,0.650,0.440,40.649,69.397,19.714
0.194,0.632,0.445,37.354,62.378,16.296
0.174,0.654,0.453,27.710,55.725,13.489
0.170,0.700,0.461,14.648,48.218,10.071
0.174,0.765,0.458,1.404,41.016,6.775
0.177,0.838,0.436,-7.507,33.997,2.869
0.165,0.922,0.402,-10.864,27.527,0.244
0.135,0.979,0.387,-8.423,22.583,-0.549
0.129,0.992,0.366,-2.991,19.287,-0.854
0.140,0.971,0.370,1.160,15.198,-0.977
0.122,0.964,0.374,2.502,11.230,0.366
0.104,0.957,0.369,1.282,7.751,1.282
0.100,0.951,0.365,-0.793,3.906,1.099
0.092,0.956,0.366,-2.502,-0.610,0.244
0.080,0.968,0.351,-2.869,-4.822,-1.160
0.067,0.974,0.337,-2.625,-9.766,-2.686
0.047,0.981,0.322,-1.892,-14.526,-4.700
0.028,0.992,0.289,-0.305,-18.311,-6.409
0.011,0.993,0.251,1.648,-20.874,-6.775
-0.006,0.996,0.219,3.845,-21.240,-6.531
-0.013,0.983,0.206,5.371,-19.653,-5.859
-0.012,0.969,0.211,4.639,-17.212,-5.371
-0.005,0.968,0.217,1.526,-14.771,-4.822
0.001,0.981,0.222,-2.075,-12.451,-4.822
0.006,0.997,0.235,-4.028,-10.925,-5.493
0.014,1.007,0.246,-4.028,-10.681,-6.470
0.024,1.007,0.250,-2.808,-11.963,-7.202
0.031,1.005,0.246,-1.221,-14.954,-8.179
0.035,1.005,0.240,0.061,-18.066,-8.911
0.036,0.998,0.233,1.587,-20.874,-9.338
0.039,0.985,0.229,3.174,-23.560,-9.583
0.040,0.974,0.229,3.723,-25.818,-9.766
0.034,0.978,0.213,2.930,-26.672,-9.949
0.022,0.990,0.190,2.197,-25.085,-9.888
0.029,0.979,0.182,2.808,-20.874,-9.766
0.024,0.964,0.195,3.784,-17.151,-9.338
0.032,0.940,0.196,3.906,-13.184,-9.033
0.044,0.936,0.204,1.282,-10.925,-7.751
0.047,0.941,0.208,-1.648,-10.254,-6.775
0.049,0.946,0.213,-2.563,-9.949,-6.958
0.058,0.941,0.219,-1.221,-9.644,-7.629
0.062,0.918,0.222,0.488,-9.766,-8.423
0.053,0.925,0.218,1.038,-10.742,-8.911
0.057,0.930,0.204,0.305,-11.414,-8.484
0.053,0.941,0.204,-0.916,-12.024,-6.592
0.047,0.951,0.202,-3.174,-11.719,-3.662
0.050,0.962,0.197,-5.310,-9.827,-1.648
0.057,0.966,0.194,-7.874,-7.385,0.122
0.061,0.974,0.200,-10.315,-5.737,1.770
0.064,0.977,0.208,-11.963,-4.700,2.869
0.061,0.977,0.216,-12.390,-4.272,3.174
0.066,0.992,0.212,-12.451,-4.700,3.357
0.060,1.003,0.207,-11.292,-5.798,3.174
0.057,0.998,0.207,-8.057,-6.958,2.502
0.054,0.989,0.214,-4.395,-7.996,1.404
0.050,0.978,0.217,-1.953,-8.789,-0.427
0.040,0.969,0.215,-0.244,-9.277,-1.831
0.031,0.964,0.210,1.099,-8.667,-2.502
-0.257,1.363,-1.153,14.038,-154.480,-14.343
-1.143,1.491,-1.972,20.813,-139.954,-14.954
-0.763,1.839,-4.000,19.348,76.782,-1.648
-1.122,0.450,-0.077,62.744,249.512,-25.330
0.028,0.830,-0.497,-21.240,108.765,-2.441
-0.389,1.792,-1.174,-80.322,-11.475,39.917
-0.114,1.182,-0.790,-12.207,-98.389,25.818
-0.069,1.161,-0.841,28.564,-105.408,22.583
-0.055,1.022,-0.992,28.503,-93.079,28.381
-0.134,0.934,-0.930,25.696,-81.299,24.109
-0.191,0.890,-0.893,22.583,-63.354,14.160
-0.254,0.860,-0.857,32.104,-37.415,4.456
-0.231,0.820,-0.702,41.016,-3.113,-2.563
-0.152,0.770,-0.574,38.757,37.781,-6.470
-0.055,0.733,-0.509,25.269,71.350,-5.676
-0.022,0.724,-0.388,5.066,89.478,-2.808
-0.020,0.721,-0.269,-12.268,98.145,0.000
0.000,0.731,-0.191,-26.245,103.760,1.526
0.028,0.775,-0.131,-36.621,107.666,-0.122
0.050,0.846,-0.079,-38.513,111.694,-5.249
0.071,0.921,-0.016,-33.508,114.563,-14.221
0.059,0.981,0.024,-24.292,120.056,-25.208
0.057,0.993,0.098,-12.329,129.761,-37.354
0.059,0.994,0.133,-2.808,137.695,-46.997
0.066,0.981,0.255,4.028,145.813,-51.208
0.084,0.990,0.366,4.211,151.184,-52.246
0.090,1.003,0.394,1.160,157.227,-50.964
0.163,0.987,0.473,-1.404,165.222,-47.974
0.177,1.020,0.529,-11.108,165.039,-42.725
0.252,1.034,0.597,-24.231,160.522,-34.912
0.268,1.069,0.609,-39.734,150.330,-26.306
0.249,1.129,0.570,-49.011,139.832,-19.287
0.244,1.208,0.547,-41.992,133.789,-12.634
0.290,1.228,0.548,-25.574,129.883,-6.775
0.330,1.215,0.561,-7.629,124.268,-0.122
0.338,1.179,0.578,5.127,114.197,6.348
0.333,1.089,0.573,14.954,101.929,9.277
0.311,1.018,0.564,21.790,89.050,10.132
0.283,0.958,0.547,25.574,77.026,9.827
0.249,0.925,0.515,26.672,66.345,8.667
0.206,0.910,0.475,26.001,56.885,8.118
0.163,0.898,0.438,26.489,50.537,6.775
0.141,0.885,0.415,27.466,47.485,5.005
0.132,0.876,0.387,27.710,46.082,1.770
0.118,0.874,0.356,28.809,47.302,-0.977
0.109,0.872,0.340,30.090,49.377,-2.441
0.120,0.868,0.331,30.884,52.307,-4.211
0.140,0.874,0.341,31.189,54.993,-6.287
0.156,0.882,0.362,29.785,55.054,-7.202
0.158,0.899,0.376,27.771,53.955,-7.080
0.168,0.909,0.372,25.940,52.917,-5.798
0.176,0.912,0.368,25.146,51.208,-5.798
0.172,0.911,0.358,24.963,47.852,-6.165
0.162,0.911,0.358,24.963,44.312,-6.042
0.167,0.894,0.354,24.414,41.016,-6.348
0.160,0.892,0.341,22.644,37.048,-6.348
0.160,0.888,0.350,22.339,32.166,-6.165
0.155,0.901,0.348,22.278,26.855,-5.554
0.156,0.893,0.341,21.545,22.034,-5.188
0.160,0.899,0.327,19.409,16.724,-5.127
0.150,0.912,0.320,16.602,11.169,-5.188
0.134,0.931,0.309,14.832,6.165,-5.676
0.117,0.944,0.299,14.709,3.418,-5.432
0.115,0.960,0.288,13.977,2.686,-3.723
0.117,0.946,0.286,11.597,2.930,-2.441
0.106,0.944,0.275,6.775,3.052,-1.892
0.105,0.954,0.264,1.953,2.319,-0.854
0.106,0.967,0.273,-1.465,-0.061,-0.244
0.104,0.979,0.265,-4.089,-2.502,0.305
0.092,0.987,0.245,-6.348,-4.944,0.183
0.079,0.996,0.234,-7.202,-8.667,-0.793
0.073,1.011,0.222,-5.676,-11.658,-1.831
0.063,1.013,0.216,-3.601,-13.306,-3.113
0.051,1.011,0.204,-1.587,-13.672,-4.272
0.049,1.010,0.189,0.488,-12.451,-4.639
0.052,1.011,0.186,2.014,-10.437,-5.127
0.056,1.012,0.186,3.357,-8.362,-5.676
0.056,1.008,0.195,4.517,-7.019,-6.042
0.059,1.004,0.200,5.249,-5.981,-5.554
0.065,0.997,0.199,5.798,-5.981,-4.700
0.074,0.999,0.196,5.798,-6.653,-4.395
0.069,1.000,0.197,5.066,-8.118,-4.150
0.067,0.994,0.198,5.188,-9.277,-3.479
0.072,0.983,0.196,5.127,-10.437,-2.686
0.068,0.974,0.192,4.639,-10.803,-2.319
0.074,0.975,0.188,4.883,-9.521,-2.380
0.078,0.971,0.189,4.944,-7.690,-2.686
0.077,0.967,0.196,4.150,-5.981,-2.563
0.082,0.966,0.203,3.113,-4.272,-2.197
0.094,0.959,0.210,2.380,-2.930,-1.770
0.101,0.964,0.214,1.343,-2.625,-1.526
0.101,0.971,0.213,-0.061,-3.174,-1.587
0.102,0.974,0.211,-0.671,-3.601,-0.977
0.103,0.972,0.208,-0.183,-4.395,-0.610
0.102,0.978,0.206,0.549,-4.944,-0.549
0.099,0.982,0.202,1.282,-4.578,-0.061
0.094,0.975,0.196,1.404,-4.272,1.221
0.087,0.967,0.193,0.549,-4.333,3.052
0.087,0.964,0.192,-0.732,-3.540,4.822
0.087,0.959,0.195,-2.380,-2.686,5.859
0.087,0.962,0.193,-3.662,-2.258,6.531
0.089,0.964,0.194,-4.150,-2.014,6.836
0.091,0.966,0.193,-3.723,-1.831,6.409
0.089,0.962,0.194,-2.930,-2.197,5.676
0.086,0.961,0.195,-2.441,-2.625,5.249
0.089,0.959,0.191,-2.136,-3.174,5.005
0.084,0.962,0.189,-2.563,-3.601,4.517
0.076,0.963,0.188,-3.113,-3.906,4.028
0.067,0.967,0.182,-2.930,-3.540,4.028
0.074,0.967,0.176,-1.953,-2.502,4.150
0.081,0.967,0.175,-0.854,-1.099,3.479
0.077,0.961,0.185,-0.305,0.122,2.625
0.075,0.956,0.193,-0.305,0.732,2.319
0.073,0.953,0.192,-0.854,1.038,2.441
0.070,0.954,0.187,-1.648,0.793,2.319
0.070,0.964,0.181,-2.075,0.305,1.953
0.068,0.970,0.177,-2.014,0.122,1.404
0.066,0.972,0.180,-1.221,0.305,1.160
0.071,0.964,0.183,0.061,0.977,0.793
1.206,0.645,1.303,-32.715,236.023,54.565
1.345,0.675,1.373,-28.809,215.698,53.589
1.435,0.623,1.465,-20.386,183.594,47.119
1.460,0.594,1.535,-10.193,140.015,39.856
1.446,0.582,1.557,-5.615,85.144,31.860
1.417,0.588,1.533,-8.423,22.278,22.461
1.322,0.642,1.434,-17.151,-44.861,12.207
1.218,0.720,1.211,-27.527,-112.427,1.648
1.089,0.807,0.973,-35.522,-173.157,-9.888
1.001,0.857,0.747,-41.077,-219.482,-22.766
0.927,0.922,0.525,-44.312,-256.104,-33.997
0.867,0.994,0.329,-43.396,-285.278,-41.504
0.772,1.017,0.183,-36.804,-303.345,-45.898
0.623,1.061,0.026,-30.334,-315.247,-46.997
0.499,1.093,-0.177,-24.536,-326.660,-41.809
0.405,1.122,-0.319,-17.395,-334.290,-33.264
0.322,1.116,-0.458,-17.212,-335.388,-25.269
0.225,1.055,-0.551,-26.428,-331.116,-19.775
0.129,1.107,-0.633,-43.396,-325.134,-16.052
0.074,1.232,-0.742,-63.049,-320.923,-14.771
0.025,1.362,-0.916,-75.500,-317.322,-15.198
-0.032,1.500,-1.109,-74.951,-309.021,-13.855
-0.122,1.544,-1.273,-56.213,-289.307,-9.399
-0.230,1.460,-1.317,-28.320,-259.583,-4.272
-0.322,1.311,-1.314,-7.141,-223.083,-0.122
-0.333,1.174,-1.227,4.639,-183.899,5.005
-0.321,1.146,-1.121,9.949,-148.682,12.756
-0.292,1.094,-1.025,10.498,-122.559,18.799
-0.299,1.025,-0.911,6.592,-107.300,22.339
-0.294,0.967,-0.826,-1.343,-98.633,25.085
-0.646,0.880,-1.166,-11.780,-81.360,25.208
-0.657,0.709,-1.656,-39.917,7.568,19.897
-0.715,0.720,-1.100,-67.993,42.053,15.015
-0.437,0.970,-0.349,-62.866,21.790,22.278
-0.323,1.004,-0.247,-11.597,27.161,14.587
-0.115,1.000,-0.033,6.226,7.385,7.385
-0.172,0.906,-0.057,7.935,-27.283,-7.996
-0.187,0.872,-0.044,12.329,-45.349,-22.888
-0.157,0.848,-0.001,21.545,-50.049,-34.546
-0.124,0.862,0.011,24.841,-46.936,-39.490
-0.024,0.961,0.115,14.038,-42.419,-34.180
0.012,1.036,0.172,-0.854,-33.264,-22.766
0.064,1.070,0.226,-12.756,-21.057,-8.179
0.091,1.112,0.275,-23.682,-11.841,8.911
0.119,1.128,0.291,-33.264,-6.226,23.254
0.094,1.133,0.281,-40.100,-4.883,31.189
0.056,1.125,0.250,-41.504,-7.874,34.912
0.013,1.114,0.188,-36.499,-12.878,36.011
-0.025,1.085,0.115,-26.550,-16.907,34.546
-0.055,1.053,0.048,-16.418,-17.822,30.212
-0.071,0.994,-0.012,-7.385,-14.832,24.780
-0.076,0.971,-0.065,-0.671,-9.155,19.470
-0.106,0.968,-0.117,4.272,-3.784,14.465
-0.133,0.969,-0.181,7.263,1.953,10.559
-0.133,0.971,-0.224,11.719,8.545,8.850
-0.124,0.957,-0.250,17.334,12.085,8.362
-0.150,0.942,-0.263,21.667,12.451,9.338
-0.169,0.931,-0.272,23.987,12.329,10.620
-0.182,0.935,-0.274,25.391,13.428,10.010
-0.182,0.934,-0.292,26.245,15.564,7.507
-0.184,0.941,-0.316,27.588,18.188,4.272
-0.198,0.929,-0.331,29.724,20.996,0.244
-0.202,0.919,-0.349,31.433,27.039,-3.357
-0.187,0.907,-0.336,30.029,35.767,-7.202
-0.171,0.897,-0.307,26.123,44.617,-11.169
-0.166,0.904,-0.261,19.775,53.528,-13.916
-0.158,0.927,-0.207,12.268,62.500,-15.320
-0.136,0.950,-0.167,5.615,69.153,-15.686
-0.106,0.979,-0.144,0.061,72.571,-15.869
-0.096,1.005,-0.122,-2.136,73.853,-16.479
-0.093,1.037,-0.106,-2.075,72.876,-17.212
-0.086,1.058,-0.108,-1.404,71.594,-17.700
-0.070,1.059,-0.100,0.000,70.496,-18.372
-0.071,1.068,-0.101,1.587,70.557,-18.921
-0.072,1.080,-0.124,3.357,71.350,-18.982
-0.075,1.073,-0.113,8.423,74.585,-18.799
-0.069,1.058,-0.109,14.221,81.299,-18.677
-0.041,1.038,-0.105,17.273,88.806,-17.639
-0.027,1.020,-0.084,16.541,95.459,-15.930
-0.015,1.028,-0.059,13.062,100.830,-13.428
0.005,1.043,-0.041,7.996,104.492,-9.766
0.021,1.053,-0.008,3.418,106.873,-4.944
0.034,1.054,0.015,1.221,108.032,-0.793
0.053,1.045,0.048,1.099,109.192,2.502
0.085,1.018,0.075,2.563,111.572,3.784
0.106,0.993,0.119,4.028,114.563,3.601
0.124,0.954,0.172,3.723,117.371,3.723
0.142,0.943,0.206,0.610,119.568,5.005
0.172,0.927,0.245,-2.869,120.972,6.287
0.205,0.912,0.285,-6.409,120.667,7.507
0.226,0.903,0.328,-11.475,118.652,9.094
0.241,0.901,0.361,-17.578,114.990,11.597
0.245,0.910,0.406,-24.048,109.314,14.587
0.247,0.920,0.414,-29.480,102.783,17.639
0.250,0.945,0.429,-32.593,95.154,19.104
0.250,0.969,0.427,-31.616,88.928,18.250
0.245,0.975,0.443,-25.146,85.388,15.686
0.248,0.965,0.458,-16.785,83.008,11.963
0.247,0.945,0.468,-10.925,80.139,8.240
0.234,0.932,0.482,-8.728,76.172,5.981
0.222,0.934,0.480,-9.094,70.801,5.249
0.207,0.945,0.471,-10.925,64.270,5.432
0.187,0.960,0.458,-12.451,57.617,6.409
0.166,0.975,0.445,-13.428,51.697,7.385
0.157,0.986,0.429,-12.878,47.363,7.507
0.153,0.989,0.416,-10.315,45.349,7.141
0.146,0.984,0.419,-6.836,44.312,6.348
0.139,0.979,0.420,-4.456,42.786,6.042
0.131,0.979,0.416,-3.784,40.161,6.226
0.120,0.986,0.407,-3.174,36.560,6.287
0.107,0.985,0.397,-1.831,32.959,5.981
0.101,0.990,0.381,0.000,29.724,5.737
0.096,0.998,0.368,1.892,26.245,5.005
0.087,1.005,0.362,4.639,23.010,3.601
0.079,1.012,0.346,8.179,20.386,2.136
0.076,1.019,0.334,11.902,17.578,1.099
0.066,1.010,0.318,15.747,14.771,0.610
0.057,0.995,0.305,19.043,12.878,1.038
0.052,0.980,0.297,20.630,11.414,1.526
0.862,0.751,1.167,30.334,203.491,13.916
0.970,0.730,1.300,36.560,180.420,10.742
1.075,0.707,1.379,36.316,149.475,7.751
1.158,0.708,1.452,31.311,109.802,4.456
1.245,0.729,1.441,24.475,62.805,1.282
1.280,0.754,1.429,16.235,10.620,-1.892
1.289,0.780,1.350,9.094,-43.274,-6.470
1.290,0.788,1.224,5.066,-96.313,-13.550
1.283,0.766,1.082,2.686,-144.897,-20.996
1.235,0.757,0.949,-4.517,-188.904,-27.832
1.191,0.778,0.790,-18.066,-231.628,-34.058
1.112,0.836,0.632,-33.875,-271.790,-38.330
0.993,0.921,0.449,-48.096,-306.335,-39.612
0.857,1.028,0.205,-56.519,-335.327,-38.147
0.715,1.134,-0.047,-53.040,-355.774,-32.776
0.606,1.164,-0.285,-42.480,-366.516,-26.184
0.511,1.123,-0.476,-31.555,-367.676,-17.273
0.428,1.049,-0.562,-29.114,-360.718,-5.798
0.386,0.925,-0.612,-36.682,-349.121,6.348
0.334,0.810,-0.573,-54.382,-338.013,17.090
0.307,0.779,-0.558,-78.247,-329.224,23.682
0.281,0.942,-0.616,-100.342,-327.393,23.865
0.149,1.240,-0.854,-112.183,-332.703,20.020
0.037,1.425,-1.163,-102.112,-328.613,16.724
-0.062,1.458,-1.354,-62.317,-307.922,13.306
-0.161,1.349,-1.417,-12.390,-273.926,8.118
-0.264,1.207,-1.373,24.170,-231.995,1.526
-0.350,1.102,-1.334,40.833,-186.401,-5.859
-0.332,1.045,-1.288,45.227,-145.081,-12.817
-0.303,1.026,-1.219,43.396,-117.493,-15.930
-1.165,0.984,-1.387,39.856,-98.511,-15.381
-0.041,0.838,-2.111,22.827,-21.790,-5.249
-0.883,0.852,-1.662,-40.039,8.972,-6.470
-0.267,1.033,-1.203,-29.968,11.292,-8.179
-0.159,1.269,-0.684,12.634,-30.884,6.348
-0.236,1.004,-0.587,67.993,-35.278,-4.150
-0.178,0.878,-0.974,111.084,-24.841,-14.587
0.052,0.820,-1.103,96.680,-26.855,-13.367
-0.226,0.741,-0.844,56.152,-43.762,-17.212
-0.222,0.722,-0.801,24.048,-27.527,-13.855
-0.167,0.713,-0.736,-0.183,1.160,-6.165
-0.083,0.770,-0.563,-27.649,21.484,1.953
-0.026,0.824,-0.438,-52.368,42.175,9.827
-0.006,0.866,-0.314,-72.998,59.021,17.273
0.011,0.926,-0.218,-87.463,71.289,23.071
0.022,0.985,-0.153,-90.088,81.421,24.597
0.034,1.046,-0.104,-83.679,89.233,20.569
0.047,1.096,-0.090,-72.876,93.262,13.428
0.059,1.137,-0.066,-58.228,92.712,3.052
0.045,1.135,-0.020,-40.894,90.637,-8.362
0.009,1.133,-0.005,-23.010,90.637,-18.250
0.004,1.105,0.019,-7.751,92.407,-26.306
0.018,1.096,0.040,1.160,94.360,-30.640
0.024,1.084,0.052,5.310,96.680,-33.081
0.034,1.084,0.070,5.615,98.450,-33.142
0.044,1.094,0.085,1.587,98.938,-31.433
0.038,1.122,0.098,-3.784,99.487,-26.733
0.030,1.140,0.117,-7.263,101.257,-20.447
0.039,1.134,0.134,-9.583,104.553,-13.306
0.040,1.130,0.171,-12.268,107.361,-5.554
0.036,1.124,0.201,-14.771,109.680,0.488
0.049,1.105,0.214,-14.954,111.206,4.272
0.056,1.098,0.237,-13.916,110.779,6.348
0.057,1.097,0.244,-12.268,109.070,6.714
0.051,1.077,0.260,-7.996,107.910,5.432
0.041,1.060,0.281,-1.770,107.483,3.052
0.046,1.052,0.276,3.845,106.628,0.427
0.051,1.048,0.277,8.728,105.530,-1.404
0.048,1.042,0.292,13.062,105.347,-2.258
0.060,1.015,0.301,17.517,106.506,-2.197
0.075,0.983,0.322,21.362,108.398,-1.709
0.092,0.952,0.348,20.752,109.985,-0.427
0.087,0.943,0.370,15.076,110.168,2.441
0.104,0.941,0.389,7.080,107.483,6.165
0.104,0.955,0.404,-0.427,102.844,9.521
0.111,0.972,0.397,-5.066,97.473,12.817
0.117,0.981,0.388,-6.897,91.431,15.564
0.111,0.974,0.395,-4.944,85.266,16.602
0.115,0.957,0.389,-1.282,79.651,15.381
0.115,0.935,0.379,3.296,73.608,12.573
0.109,0.927,0.369,6.592,66.040,9.583
0.102,0.922,0.361,8.118,58.044,6.165
0.095,0.927,0.351,10.193,51.758,2.563
0.099,0.944,0.346,13.794,47.363,-1.221
0.100,0.945,0.343,19.836,43.823,-4.761
0.104,0.931,0.345,26.672,39.917,-8.484
0.113,0.915,0.330,31.189,35.461,-10.986
0.112,0.905,0.330,30.762,30.762,-10.864
0.108,0.906,0.325,23.865,25.208,-7.507
0.104,0.934,0.315,13.367,19.165,-2.075
0.095,0.970,0.300,3.113,12.817,4.211
0.082,1.004,0.279,-3.906,7.751,10.376
0.071,1.010,0.255,-7.141,4.578,14.648
0.066,1.005,0.239,-8.179,2.563,17.212
0.063,1.018,0.229,-8.484,0.427,18.127
0.054,1.021,0.215,-7.141,-1.648,16.968
0.041,1.019,0.204,-4.272,-3.601,14.954
0.031,1.006,0.195,-0.732,-6.348,12.573
0.027,0.996,0.182,2.563,-9.583,10.132
0.019,0.989,0.168,4.517,-12.878,8.118
0.004,0.988,0.157,6.592,-15.564,6.165
-0.001,0.979,0.140,8.545,-17.395,4.517
-0.006,0.967,0.126,9.644,-18.982,3.052
-0.009,0.958,0.109,9.277,-20.325,1.465
-0.012,0.958,0.096,7.568,-21.606,0.061
-0.023,0.958,0.084,5.493,-22.217,-0.488
-0.032,0.961,0.073,3.601,-22.095,-0.488
-0.035,0.965,0.063,2.014,-21.301,-0.305
-0.041,0.966,0.054,0.854,-20.508,0.122
-0.051,0.973,0.048,-0.122,-19.287,0.549
-0.053,0.980,0.041,0.366,-17.334,0.916
-0.044,0.979,0.037,1.953,-14.587,1.221
-0.038,0.977,0.040,2.747,-12.207,0.671
-0.035,0.977,0.040,2.502,-10.681,-0.366
-0.034,0.979,0.044,2.258,-9.888,-1.587
-0.027,0.984,0.050,2.563,-8.728,-2.563
-0.021,0.988,0.056,3.235,-7.507,-3.906
-0.016,0.985,0.065,4.028,-7.080,-5.005
-0.016,0.984,0.068,5.005,-7.446,-5.737
-0.358,1.259,-1.532,-35.217,-156.860,36.804
-0.560,1.166,-1.641,6.226,-132.324,30.701
-0.709,1.027,-1.663,28.992,-106.689,25.757
-2.225,1.146,-2.091,33.813,-74.707,21.606
-1.129,0.853,-3.224,3.906,104.126,18.860
-1.433,0.664,-2.879,-104.248,225.098,-20.691
-0.698,1.346,-1.342,-78.552,144.775,-11.841
-0.375,1.778,-0.761,26.733,64.026,-2.625
-0.358,1.204,-0.829,113.037,9.888,-24.170
-0.285,0.964,-1.079,139.038,-41.626,-28.320
-0.500,0.749,-1.158,122.253,-72.876,-36.804
-0.342,0.683,-1.348,80.750,-34.973,-45.471
-0.297,0.827,-1.215,47.302,-10.193,-41.931
-0.270,0.951,-1.009,37.048,11.536,-29.785
-0.172,0.936,-0.856,39.673,43.030,-17.761
-0.069,0.896,-0.709,39.368,65.186,-5.066
-0.017,0.887,-0.554,29.419,71.533,8.179
0.007,0.898,-0.439,17.578,70.374,19.409
0.051,0.906,-0.353,11.047,66.528,25.330
0.078,0.906,-0.302,9.949,61.096,26.001
0.085,0.903,-0.309,10.254,54.016,23.254
0.051,0.897,-0.282,9.521,46.570,17.700
0.027,0.868,-0.215,11.292,42.786,10.193
0.012,0.842,-0.164,14.343,47.729,2.319
0.012,0.820,-0.065,14.709,57.190,-5.310
0.014,0.819,0.056,11.597,68.726,-13.489
0.053,0.832,0.187,5.615,82.703,-21.667
0.065,0.868,0.286,0.793,98.816,-29.907
0.096,0.957,0.362,-3.601,112.854,-37.476
0.187,1.055,0.431,-9.216,123.352,-43.823
0.260,1.145,0.487,-13.550,129.517,-46.387
0.307,1.198,0.570,-14.160,130.432,-44.739
0.344,1.228,0.631,-13.428,126.892,-37.231
0.367,1.268,0.668,-15.564,119.324,-24.719
0.374,1.282,0.656,-18.066,109.253,-9.399
0.385,1.262,0.642,-14.221,98.877,5.920
0.367,1.194,0.651,-7.507,89.172,19.653
0.317,1.107,0.671,-4.395,80.933,29.846
0.291,1.038,0.681,-4.822,74.463,36.621
0.266,0.982,0.703,-6.165,69.458,39.001
0.242,0.936,0.707,-6.653,65.552,38.330
0.212,0.907,0.704,-5.127,61.890,35.889
0.183,0.891,0.697,-2.747,58.594,31.616
0.159,0.868,0.663,0.244,56.335,26.367
0.142,0.859,0.635,3.418,53.406,21.729
0.129,0.852,0.612,5.798,49.438,17.944
0.122,0.852,0.593,7.690,45.288,15.747
0.108,0.855,0.566,10.071,42.297,14.954
0.083,0.837,0.543,13.062,39.856,14.832
0.064,0.792,0.523,17.395,37.781,15.198
0.063,0.757,0.505,20.447,35.339,15.991
0.069,0.734,0.486,20.081,31.860,15.991
0.070,0.742,0.460,17.029,27.527,14.221
0.059,0.761,0.450,13.916,22.522,10.986
0.055,0.794,0.428,13.428,17.700,6.714
0.061,0.830,0.407,15.747,12.939,2.075
0.066,0.861,0.385,18.738,8.240,-1.526
0.056,0.891,0.361,19.958,3.845,-3.113
0.033,0.919,0.345,20.203,0.488,-3.174
0.016,0.936,0.324,19.958,-0.977,-2.258
0.014,0.938,0.299,19.348,-0.366,-1.160
0.013,0.945,0.284,17.517,1.099,0.366
0.014,0.942,0.277,13.428,2.197,1.587
0.019,0.954,0.273,8.240,1.770,2.991
0.022,0.966,0.271,4.456,-0.183,3.906
0.028,0.963,0.270,2.625,-2.625,4.089
0.030,0.962,0.278,0.916,-6.226,4.211
0.030,0.960,0.281,-0.916,-10.681,4.517
0.024,0.954,0.270,-1.648,-16.174,4.089
0.019,0.931,0.278,-1.526,-22.034,2.808
0.015,0.938,0.245,-0.793,-26.550,1.282
0.018,0.937,0.250,0.000,-30.396,-0.977
-0.003,0.946,0.223,2.625,-33.264,-3.418
-0.021,0.968,0.193,6.409,-35.034,-5.859
-0.030,0.979,0.197,11.902,-35.034,-8.484
-0.029,0.958,0.177,19.165,-32.959,-10.925
-0.040,0.945,0.167,23.499,-31.067,-11.108
-0.043,0.933,0.158,24.841,-29.053,-10.803
-0.042,0.919,0.170,24.658,-26.917,-10.315
-0.048,0.904,0.167,25.330,-24.170,-10.254
-0.036,0.902,0.151,25.391,-21.301,-11.108
-0.031,0.914,0.163,21.729,-20.020,-12.207
-0.023,0.915,0.188,17.822,-19.775,-13.184
-0.011,0.914,0.158,14.587,-19.470,-13.367
-0.014,0.929,0.144,9.888,-19.775,-13.245
-0.019,0.949,0.180,5.127,-21.790,-12.085
-0.021,0.938,0.196,4.578,-22.034,-11.780
-0.033,0.927,0.193,6.836,-19.409,-11.902
-0.052,0.908,0.191,9.399,-16.663,-12.756
-0.051,0.900,0.191,12.085,-13.489,-13.367
-0.040,0.908,0.192,14.587,-10.254,-14.160
-0.012,0.927,0.193,16.418,-7.507,-16.541
-0.002,0.942,0.201,16.907,-5.981,-20.203
0.001,0.952,0.203,17.273,-4.883,-23.682
-0.002,0.948,0.206,18.127,-4.211,-25.940
0.004,0.945,0.224,18.311,-4.272,-25.513
0.003,0.938,0.202,17.944,-5.066,-23.254
0.010,0.921,0.197,14.771,-6.958,-20.325
0.001,0.906,0.189,10.010,-8.606,-17.944
-0.013,0.902,0.181,2.625,-9.216,-16.052
-0.015,0.909,0.193,-6.287,-9.644,-15.015
-0.016,0.920,0.198,-15.259,-8.423,-14.893
-0.016,0.957,0.234,-22.888,-6.409,-15.198
0.002,0.994,0.241,-25.818,-2.563,-16.418
0.029,1.054,0.248,-26.489,0.916,-18.127
0.056,1.121,0.270,-25.940,2.258,-20.203
0.069,1.150,0.270,-21.729,1.526,-22.705
0.066,1.170,0.247,-14.893,-0.427,-24.536
0.062,1.167,0.222,-7.935,-2.991,-25.879
0.048,1.168,0.223,-2.563,-5.859,-26.550
0.029,1.158,0.215,1.343,-7.141,-26.428
0.025,1.125,0.178,4.211,-7.263,-24.719
0.037,1.112,0.171,3.662,-6.836,-21.606
0.055,1.106,0.178,1.221,-5.981,-17.761
0.068,1.093,0.182,-1.831,-5.005,-13.672
0.075,1.066,0.178,-4.211,-5.005,-9.216
0.078,1.040,0.162,-5.737,-5.554,-5.188
0.073,1.023,0.148,-8.057,-6.592,-2.136
0.063,1.017,0.143,-10.254,-8.362,0.000
-0.191,2.363,-2.175,143.250,-42.908,-4.150
0.244,1.127,-0.330,669.861,-93.323,-22.034
-0.536,0.590,-0.863,457.458,-0.793,-32.349
-0.803,0.455,0.269,187.256,15.442,-2.014
-0.700,0.879,0.833,48.828,15.503,11.047
-0.352,0.755,0.505,69.702,-16.113,-8.301
-0.357,0.789,0.135,16.418,-28.870,-38.452
-0.048,1.318,-0.480,-115.540,-21.606,-50.598
0.139,1.556,-0.826,-183.472,-43.335,-50.476
-0.013,1.802,-0.996,-134.094,-79.163,-54.199
0.009,1.818,-1.055,-29.419,-79.102,-46.753
0.062,1.743,-0.980,32.227,-59.448,-40.894
-0.006,1.571,-0.743,62.927,-35.095,-33.508
-0.059,1.375,-0.483,91.980,-9.460,-24.597
-0.042,1.182,-0.333,110.962,7.507,-19.104
0.036,1.073,-0.245,109.924,16.113,-19.226
0.090,1.034,-0.133,90.271,18.860,-19.592
0.083,0.970,-0.098,70.862,22.583,-18.982
0.052,0.906,-0.121,51.392,30.640,-16.418
0.071,0.903,-0.140,29.663,40.344,-14.038
0.146,0.906,-0.109,16.724,53.711,-12.878
0.270,0.883,-0.061,19.714,67.078,-11.230
0.385,0.914,-0.036,24.170,74.097,-10.376
0.416,0.925,-0.052,25.024,74.890,-7.446
0.376,0.898,-0.005,30.212,73.303,-0.977
0.328,0.858,0.051,42.175,73.669,10.498
0.278,0.791,0.147,54.565,77.637,24.475
0.231,0.700,0.240,64.575,82.397,36.682
0.218,0.642,0.354,69.092,84.595,44.189
0.213,0.601,0.440,70.496,82.153,46.753
0.187,0.565,0.449,69.214,74.036,43.884
0.104,0.505,0.439,64.758,66.345,36.133
0.001,0.493,0.493,55.176,68.726,24.780
0.036,0.559,0.541,42.175,81.543,13.489
0.128,0.599,0.622,37.720,93.201,4.517
0.203,0.635,0.715,36.377,100.220,1.770
0.282,0.667,0.785,31.860,103.638,4.822
0.325,0.702,0.844,27.527,102.417,9.460
0.353,0.742,0.897,25.635,95.520,14.832
0.350,0.773,0.949,26.367,84.412,22.827
0.347,0.775,0.946,29.175,69.824,33.203
0.294,0.700,0.947,34.180,51.758,42.969
0.195,0.646,0.932,35.522,35.278,47.180
0.058,0.608,0.895,34.180,23.376,44.922
-0.044,0.600,0.884,30.212,17.944,39.063
-0.084,0.609,0.897,28.198,19.531,31.799
-0.112,0.635,0.952,27.405,23.987,25.269
-0.084,0.652,0.966,27.405,28.809,21.729
-0.044,0.679,0.990,28.198,31.555,20.630
0.040,0.691,0.999,29.541,30.701,20.020
0.089,0.704,1.000,26.062,27.039,19.104
0.082,0.723,0.982,14.282,22.583,19.043
0.062,0.745,0.939,3.174,20.325,19.348
0.063,0.762,0.885,-5.859,19.226,20.630
0.047,0.762,0.825,-12.939,16.724,21.484
0.022,0.773,0.761,-21.057,13.672,20.020
-0.022,0.784,0.695,-29.236,12.146,15.808
-0.046,0.806,0.634,-34.607,13.855,10.071
-0.027,0.835,0.598,-35.828,16.846,5.005
0.019,0.853,0.585,-34.729,18.982,1.709
0.069,0.869,0.574,-33.020,18.616,0.183
0.099,0.882,0.554,-30.457,15.564,-0.427
0.119,0.910,0.543,-27.100,10.681,-0.305
0.135,0.920,0.523,-23.499,4.883,0.977
0.128,0.914,0.509,-21.729,-1.038,2.747
0.102,0.903,0.484,-22.583,-6.836,3.296
0.087,0.900,0.468,-24.475,-11.963,2.075
0.104,0.923,0.446,-26.550,-15.686,-0.732
0.110,0.944,0.407,-29.419,-19.836,-3.418
0.092,0.962,0.353,-31.250,-23.560,-5.981
0.075,0.982,0.312,-31.128,-25.146,-7.568
0.067,0.990,0.286,-28.625,-24.536,-8.179
0.061,0.994,0.275,-24.719,-22.644,-7.935
0.057,1.006,0.274,-20.569,-20.264,-6.531
0.053,1.009,0.275,-14.709,-18.372,-4.211
0.070,1.004,0.274,-7.385,-17.151,-1.343
0.088,0.988,0.271,-1.099,-17.334,1.648
0.080,0.964,0.272,3.174,-18.188,3.601
0.050,0.940,0.270,4.639,-18.494,3.967
0.026,0.924,0.275,4.578,-17.334,3.418
0.016,0.910,0.276,3.601,-15.564,2.869
0.008,0.906,0.272,0.244,-13.733,2.502
0.000,0.906,0.253,-3.662,-11.353,2.075
0.053,0.908,0.242,-7.446,-8.118,1.831
-0.023,0.951,0.270,-12.268,-4.028,2.380
0.062,0.938,0.256,-17.639,-4.456,4.883
0.020,0.961,0.240,-12.817,-0.671,3.784
0.013,0.948,0.238,-8.423,2.502,2.136
0.003,0.916,0.247,-5.554,4.822,2.197
0.012,0.918,0.265,-7.263,6.287,3.113
0.042,0.951,0.254,-12.268,6.287,4.028
0.036,0.940,0.286,-11.414,2.441,3.235
0.020,0.938,0.276,-7.996,-1.221,3.235
0.010,0.923,0.273,-5.188,-3.662,3.906
-0.005,0.926,0.260,-4.700,-4.333,3.784
-0.019,0.926,0.261,-5.615,-2.747,2.991
-0.018,0.933,0.255,-5.432,0.244,2.808
-0.012,0.918,0.273,-3.845,4.456,2.258
0.001,0.917,0.288,-2.991,8.118,1.709
0.033,0.924,0.302,-2.808,10.254,1.526
0.047,0.935,0.314,-2.808,9.766,1.892
0.050,0.940,0.313,-1.770,7.446,2.563
0.041,0.929,0.329,0.183,3.906,3.052
0.016,0.918,0.338,0.488,1.343,3.418
0.012,0.915,0.327,-0.854,0.793,2.991
0.005,0.915,0.324,-1.343,0.427,2.075
-0.012,0.905,0.336,-2.136,1.953,0.793
0.002,0.925,0.325,-3.662,4.761,-0.549
0.015,0.932,0.345,-4.211,7.141,-1.465
0.036,0.948,0.344,-5.127,9.338,-1.343
0.045,0.954,0.340,-5.249,9.827,-0.916
0.047,0.951,0.366,-3.967,8.362,-0.183
0.049,0.946,0.385,-5.676,7.263,1.465
0.042,0.923,0.383,-10.132,6.042,2.258
0.046,0.927,0.328,-15.686,4.944,1.770
0.054,0.968,0.279,-19.226,3.906,2.014
0.034,0.959,0.357,-21.667,3.235,2.136
0.060,0.961,0.241,-25.879,5.859,2.502
0.035,0.974,0.291,-20.264,3.601,2.869
-1.609,0.212,-0.660,-140.198,-421.631,-21.667
-1.326,1.431,-1.527,96.436,-209.717,5.066
-0.695,1.500,-0.475,49.438,15.015,30.273
-0.811,0.980,0.088,118.774,68.909,66.223
-0.935,0.973,0.035,147.644,88.135,33.569
-0.495,1.278,-0.060,202.942,93.872,11.597
-0.255,0.948,-1.064,192.688,99.060,-14.160
-0.055,1.589,-1.128,31.128,94.116,-29.175
0.090,1.748,-0.951,-80.139,50.171,-24.292
0.201,1.705,-1.007,-35.950,14.771,-6.348
0.146,1.574,-0.951,25.757,-7.141,-7.385
-0.072,1.552,-0.652,41.504,-11.047,-16.296
-0.196,1.352,-0.509,48.767,-0.610,-17.700
-0.176,1.234,-0.373,60.120,17.944,-17.151
-0.086,1.138,-0.289,58.777,30.579,-17.334
-0.010,1.066,-0.223,42.969,38.208,-19.531
0.053,1.036,-0.158,24.292,44.617,-22.278
0.136,0.995,-0.109,13.611,49.927,-23.437
0.223,0.942,-0.060,9.583,52.307,-21.118
0.280,0.886,-0.028,5.493,53.101,-17.883
0.317,0.865,-0.003,-0.244,54.932,-15.503
0.326,0.848,0.028,-0.183,57.373,-11.780
0.356,0.849,0.045,7.263,59.082,-5.554
0.340,0.817,0.080,14.954,60.364,1.038
0.286,0.781,0.122,22.461,63.538,8.301
0.238,0.739,0.213,30.212,68.970,15.564
0.221,0.726,0.314,33.203,74.951,23.376
0.200,0.677,0.354,26.978,79.468,30.945
0.170,0.666,0.387,13.855,81.787,33.997
0.118,0.645,0.377,6.348,81.116,31.433
0.091,0.659,0.352,8.423,78.796,25.452
0.091,0.693,0.370,17.578,75.500,17.578
0.100,0.724,0.398,29.907,74.158,11.169
0.117,0.742,0.453,38.635,77.026,7.202
0.172,0.809,0.512,42.847,83.496,5.249
0.197,0.822,0.595,48.035,88.623,6.470
0.238,0.820,0.659,51.086,88.867,10.193
0.224,0.806,0.726,54.504,84.045,14.648
0.214,0.799,0.733,53.711,77.393,19.287
0.144,0.783,0.780,50.232,71.716,22.827
0.087,0.759,0.813,46.570,68.970,25.269
0.079,0.730,0.816,44.373,67.444,27.588
0.055,0.720,0.858,41.199,64.575,28.870
0.027,0.693,0.863,35.095,62.256,28.564
0.003,0.699,0.868,25.513,60.425,26.978
0.009,0.716,0.887,17.944,58.105,24.963
0.047,0.733,0.860,11.353,54.443,22.095
0.077,0.741,0.843,6.104,48.767,17.822
0.081,0.760,0.836,0.732,41.443,12.390
0.086,0.779,0.829,-4.944,33.264,9.460
0.108,0.809,0.802,-8.728,26.306,7.507
0.108,0.833,0.745,-11.169,19.531,4.150
0.092,0.876,0.703,-13.062,14.465,-0.366
0.099,0.916,0.659,-15.076,12.695,-3.540
0.092,0.939,0.652,-14.038,11.108,-5.981
0.114,0.960,0.622,-11.475,8.484,-5.859
0.114,0.946,0.608,-8.728,4.883,-4.700
0.095,0.939,0.585,-10.132,2.258,-3.052
0.084,0.950,0.556,-11.658,-0.305,-2.747
0.099,0.950,0.530,-12.268,-2.625,-2.197
0.092,0.951,0.489,-16.724,-4.456,-1.160
0.100,0.963,0.445,-20.569,-6.042,-0.610
0.116,0.974,0.424,-22.156,-8.484,0.122
0.119,0.983,0.365,-23.376,-10.254,2.075
0.108,0.982,0.350,-22.827,-12.207,3.662
0.099,0.957,0.327,-22.095,-13.794,4.333
0.079,0.960,0.278,-21.973,-15.381,3.723
0.056,0.964,0.280,-21.912,-15.747,2.502
0.062,0.969,0.246,-21.851,-15.198,1.953
0.061,0.983,0.237,-18.616,-15.137,1.953
0.069,0.981,0.223,-15.137,-15.198,2.686
0.061,0.960,0.214,-10.681,-17.334,2.686
0.041,0.951,0.213,-8.057,-19.165,1.648
0.033,0.944,0.226,-5.493,-19.836,-0.305
0.029,0.944,0.230,-4.944,-19.226,-1.587
0.017,0.951,0.231,-5.920,-17.456,-1.343
0.027,0.957,0.230,-5.493,-15.686,-0.549
0.045,0.962,0.228,-3.906,-14.893,0.488
0.051,0.950,0.216,-2.747,-14.893,1.526
0.029,0.953,0.217,-3.540,-14.832,1.709
0.019,0.955,0.224,-3.906,-14.404,1.038
0.023,0.957,0.224,-3.296,-13.733,1.038
0.021,0.952,0.229,-2.869,-13.306,1.221
0.021,0.949,0.234,-2.380,-12.817,1.099
0.012,0.944,0.232,-2.441,-12.085,1.038
0.011,0.954,0.233,-3.540,-10.620,0.793
0.023,0.958,0.225,-3.723,-9.094,0.183
0.039,0.959,0.223,-3.235,-8.484,0.488
0.032,0.959,0.205,-3.723,-8.179,1.160
0.024,0.964,0.194,-4.272,-6.897,1.343
0.020,0.964,0.200,-4.456,-4.456,1.648
0.018,0.958,0.205,-4.822,-2.136,2.625
0.016,0.953,0.211,-6.226,0.000,3.296
0.012,0.951,0.222,-7.507,2.014,3.845
0.015,0.952,0.228,-8.911,3.845,4.272
0.019,0.953,0.229,-10.925,5.371,4.639
0.025,0.952,0.217,-12.146,5.554,4.639
0.021,0.956,0.208,-12.390,4.517,3.967
0.014,0.957,0.199,-11.658,3.052,3.113
0.019,0.961,0.198,-9.399,2.014,2.502
0.023,0.963,0.197,-6.775,1.038,2.197
0.020,0.961,0.198,-4.822,0.671,2.014
0.014,0.957,0.201,-3.906,1.404,1.953
0.009,0.952,0.210,-3.296,2.441,2.014
0.014,0.942,0.223,-2.319,3.174,1.831
0.023,0.938,0.231,-1.465,3.479,1.648
0.016,0.937,0.231,-1.587,3.235,1.099
0.015,0.947,0.232,-2.930,3.479,0.244
0.032,0.958,0.229,-3.113,4.089,0.061
0.045,0.962,0.224,-3.235,3.967,0.183
0.030,0.972,0.227,-3.662,3.479,-0.061
0.030,0.979,0.227,-3.357,3.357,-0.061
0.033,0.981,0.230,-2.625,3.662,0.183
0.034,0.986,0.237,-1.648,3.601,0.183
0.041,0.987,0.243,0.000,3.296,0.183
0.048,0.984,0.247,2.136,2.441,1.038
0.046,0.974,0.252,3.113,1.465,1.648
0.036,0.973,0.254,2.747,0.977,2.014
0.039,0.967,0.253,2.502,0.916,2.319
-1.458,0.567,1.283,-190.491,-133.118,11.719
-0.957,1.761,-3.678,-187.500,-101.563,41.992
-0.232,1.609,-1.323,250.916,-82.214,34.119
-0.872,1.066,-0.462,375.610,-26.428,34.546
-1.097,0.976,0.114,98.694,126.831,56.458
-0.509,0.499,0.437,41.870,176.025,55.847
-0.061,1.151,-0.522,49.866,92.163,29.602
-0.281,1.185,-0.613,31.494,1.160,-7.751
-0.571,1.388,-0.784,-11.841,-10.437,-21.790
-0.298,1.516,-0.725,-26.489,-0.854,-8.789
-0.130,1.425,-0.556,2.625,4.883,2.869
-0.140,1.208,-0.469,28.259,7.874,6.775
-0.228,1.117,-0.320,20.203,7.263,1.770
-0.252,1.048,-0.234,2.625,7.751,-6.226
-0.274,1.017,-0.196,-4.517,13.367,-16.235
-0.292,1.012,-0.149,-8.850,20.996,-24.414
-0.292,0.974,-0.116,-12.573,30.640,-29.541
-0.247,0.956,-0.036,-18.799,41.077,-32.043
-0.102,0.980,-0.025,-26.672,50.903,-34.241
0.084,1.048,-0.057,-31.494,53.040,-36.682
0.227,1.098,-0.110,-26.978,46.509,-38.086
0.292,1.144,-0.135,-14.099,36.255,-37.231
0.284,1.131,-0.120,1.831,28.320,-33.630
0.252,1.109,-0.062,18.127,25.757,-27.588
0.207,1.054,0.036,31.555,26.855,-18.616
0.170,0.924,0.092,38.879,28.809,-7.874
0.115,0.831,0.151,32.654,32.471,-1.770
0.052,0.789,0.125,15.930,37.048,-2.502
0.048,0.809,0.170,-3.967,46.082,-8.789
0.032,0.817,0.185,-11.292,57.617,-15.503
0.010,0.808,0.220,-9.338,65.918,-17.761
0.100,0.899,0.216,-15.015,71.899,-15.320
0.170,0.919,0.237,-10.803,71.289,-14.587
0.240,0.951,0.238,0.305,66.650,-12.390
0.260,0.964,0.260,15.930,57.190,-7.324
0.232,0.984,0.326,31.921,45.654,-0.671
0.167,0.877,0.334,49.255,36.072,9.460
0.110,0.781,0.301,55.664,33.020,15.198
0.051,0.769,0.354,46.875,38.635,11.108
0.030,0.786,0.407,38.574,49.805,4.822
0.054,0.815,0.468,36.865,60.669,1.526
0.090,0.832,0.510,36.377,68.176,2.869
0.084,0.831,0.569,34.424,71.899,7.812
0.081,0.840,0.611,31.311,73.975,12.817
0.104,0.848,0.636,27.527,74.463,17.212
0.132,0.851,0.650,22.827,71.167,20.935
0.123,0.855,0.641,17.517,64.636,23.743
0.088,0.854,0.609,12.268,57.190,25.757
0.060,0.850,0.575,8.484,53.162,26.123
0.018,0.850,0.578,5.005,52.490,23.071
0.012,0.864,0.610,5.310,53.528,18.921
0.018,0.875,0.642,9.888,53.162,16.357
0.042,0.888,0.671,11.902,50.842,15.625
0.053,0.873,0.666,11.353,47.241,15.625
0.044,0.883,0.663,8.911,43.701,14.526
0.049,0.887,0.659,5.981,40.771,13.062
0.056,0.894,0.648,4.211,37.109,11.169
0.059,0.890,0.638,0.977,31.189,10.071
0.037,0.895,0.617,0.183,25.146,7.629
0.026,0.905,0.601,1.099,20.874,4.700
0.040,0.907,0.576,2.563,17.273,4.333
0.042,0.903,0.560,3.601,12.817,5.127
0.043,0.899,0.536,4.272,8.972,5.371
0.028,0.906,0.521,3.357,6.348,5.188
0.008,0.911,0.500,1.343,4.700,5.432
0.006,0.906,0.480,0.305,3.784,6.042
0.000,0.896,0.469,-1.160,2.930,6.775
-0.011,0.890,0.448,-5.066,2.380,6.653
-0.018,0.890,0.427,-10.315,1.831,5.615
-0.029,0.915,0.391,-15.198,0.793,5.005
-0.032,0.930,0.340,-17.395,-0.183,5.432
-0.028,0.933,0.299,-16.357,-1.587,6.042
-0.013,0.934,0.278,-12.268,-3.479,6.165
-0.005,0.929,0.256,-8.057,-6.409,5.188
-0.009,0.927,0.240,-5.676,-8.911,3.418
-0.013,0.924,0.233,-3.784,-10.864,1.343
-0.010,0.926,0.223,-2.563,-12.207,-0.671
-0.016,0.937,0.224,-2.563,-12.878,-2.625
-0.017,0.937,0.221,-1.953,-12.939,-4.211
-0.014,0.944,0.228,-1.770,-12.756,-5.493
-0.006,0.953,0.230,-2.258,-13.184,-6.714
-0.006,0.962,0.226,-2.747,-14.099,-7.385
-0.022,0.980,0.198,-3.235,-14.160,-7.324
-0.035,0.999,0.180,-2.197,-12.207,-6.653
-0.014,1.003,0.180,2.930,-7.935,-5.310
0.016,1.004,0.193,7.080,-3.601,-3.235
0.028,0.993,0.219,8.484,-1.282,-0.916
0.019,0.985,0.244,8.118,-0.427,1.038
0.022,0.975,0.251,6.653,0.305,2.747
0.014,0.967,0.257,3.723,0.183,3.906
0.004,0.962,0.259,0.183,-0.183,4.333
0.012,0.958,0.246,-2.136,-0.732,3.723
0.004,0.959,0.247,-3.723,-1.953,2.686
-0.012,0.963,0.240,-3.967,-2.747,1.221
-0.015,0.963,0.234,-3.296,-2.686,0.061
-0.010,0.961,0.239,-2.380,-2.319,-0.549
-0.005,0.962,0.242,-1.587,-2.014,-0.610
0.011,0.972,0.235,-0.977,-1.404,-0.427
0.006,0.975,0.228,-0.488,-0.671,0.244
-0.004,0.971,0.231,-0.916,0.183,1.526
-0.011,0.964,0.238,-1.160,1.709,3.235
-0.016,0.953,0.251,-2.075,3.235,4.761
-0.022,0.950,0.250,-3.601,4.456,5.920
-0.020,0.963,0.225,-4.333,5.432,6.775
-0.014,0.970,0.211,-3.296,6.470,7.080
-0.009,0.966,0.213,-0.610,6.958,7.507
-0.008,0.958,0.228,1.709,6.775,7.568
-0.012,0.944,0.247,3.235,5.554,7.141
-0.018,0.930,0.264,4.089,4.089,6.714
-0.027,0.919,0.260,2.991,2.869,5.493
-0.047,0.931,0.266,-0.427,2.991,3.479
-0.040,0.935,0.265,-2.686,4.578,2.136
-0.018,0.939,0.271,-3.540,6.287,1.770
0.001,0.943,0.279,-4.150,6.775,1.831
0.002,0.949,0.270,-4.639,5.859,1.892
-0.006,0.959,0.262,-4.578,4.883,1.465
-0.012,0.967,0.260,-3.357,4.272,1.404
-0.007,0.966,0.269,-1.648,3.540,1.770
-0.003,0.955,0.266,-0.549,2.747,2.014
-0.651,1.050,-0.648,-250.488,-202.637,-8.667
-1.226,1.646,-0.788,-198.914,-107.361,44.983
-1.039,1.481,-0.585,-64.270,26.428,44.922
-0.615,1.145,-0.049,65.491,87.524,35.461
-0.365,0.882,0.157,155.945,108.948,26.611
-0.344,0.865,-0.152,174.561,90.027,8.240
-0.277,0.935,-0.420,119.019,66.101,-4.333
-0.315,1.072,-0.783,52.734,47.607,-6.775
-0.167,1.192,-0.709,-13.428,31.006,1.587
-0.064,1.243,-0.678,-33.081,18.188,4.517
-0.040,1.209,-0.710,-15.686,7.080,0.244
-0.114,1.137,-0.647,2.991,-2.930,-7.812
-0.165,1.089,-0.576,18.250,-9.399,-17.822
-0.196,1.059,-0.501,31.250,-13.184,-27.161
-0.208,1.051,-0.451,41.016,-14.771,-33.752
-0.219,1.047,-0.427,45.593,-12.085,-37.354
-0.182,1.054,-0.381,45.593,-4.578,-38.025
-0.115,1.065,-0.322,46.753,5.432,-36.194
-0.042,1.061,-0.261,48.157,16.174,-31.799
0.023,1.054,-0.187,47.241,25.024,-25.513
0.057,1.004,-0.127,46.265,31.189,-16.724
0.073,0.961,-0.089,43.701,34.851,-9.216
0.086,0.947,-0.031,38.269,38.147,-4.883
0.096,0.906,-0.010,33.752,41.626,-2.441
0.085,0.882,-0.002,27.222,44.434,-2.258
0.064,0.887,0.029,21.790,47.241,-4.395
0.060,0.904,0.050,22.339,50.354,-5.981
0.064,0.896,0.061,28.564,52.124,-6.042
0.057,0.895,0.078,36.621,52.551,-4.333
0.049,0.897,0.117,43.762,51.880,-1.587
0.063,0.905,0.151,49.988,51.392,2.014
0.078,0.905,0.194,54.626,50.537,6.470
0.083,0.877,0.228,59.387,48.889,12.146
0.079,0.807,0.233,62.378,47.180,16.357
0.051,0.774,0.239,58.289,48.096,14.648
0.032,0.779,0.276,49.744,53.589,7.812
0.040,0.813,0.318,42.725,62.378,1.038
0.069,0.849,0.357,40.588,70.313,-1.648
0.109,0.879,0.422,41.626,76.111,-0.061
0.120,0.878,0.462,45.898,79.956,3.784
0.125,0.889,0.499,45.654,82.703,7.812
0.116,0.893,0.534,41.199,84.778,12.146
0.107,0.885,0.569,37.903,86.670,16.418
0.096,0.862,0.597,39.185,86.304,19.836
0.087,0.846,0.648,41.016,84.167,22.644
0.077,0.821,0.677,41.809,81.543,24.475
0.051,0.803,0.705,39.673,78.491,25.330
0.031,0.790,0.738,35.950,74.951,25.391
0.017,0.775,0.765,31.799,71.838,24.109
0.011,0.765,0.762,25.818,67.810,22.644
-0.003,0.775,0.759,18.677,61.279,21.667
-0.006,0.781,0.742,11.658,54.138,21.301
-0.016,0.780,0.719,6.531,47.546,20.142
-0.014,0.779,0.694,2.563,41.870,17.761
-0.018,0.793,0.667,-0.427,36.499,13.855
-0.012,0.808,0.655,-3.113,29.968,10.681
-0.016,0.818,0.650,-2.197,24.292,7.507
-0.032,0.821,0.633,1.160,20.691,3.235
-0.039,0.831,0.628,3.845,18.799,-0.793
-0.018,0.850,0.636,4.578,17.761,-3.784
0.010,0.868,0.626,3.174,16.663,-6.409
0.031,0.895,0.606,0.122,14.587,-8.728
0.042,0.932,0.627,-2.930,11.353,-9.644
0.057,0.955,0.583,-7.202,7.690,-7.812
0.065,0.957,0.553,-14.038,3.235,-4.395
0.052,0.961,0.524,-20.020,0.366,-2.502
0.040,0.975,0.497,-22.400,-1.526,-1.831
0.026,0.975,0.469,-22.827,-2.747,-1.221
0.010,0.977,0.449,-22.522,-3.418,-1.038
0.006,0.969,0.423,-22.034,-3.906,-0.488
0.017,0.966,0.395,-21.423,-4.517,-0.061
0.021,0.966,0.370,-20.691,-5.676,-0.610
0.026,0.974,0.346,-19.775,-7.202,-1.465
0.036,0.983,0.305,-17.944,-9.094,-1.831
0.039,0.988,0.271,-15.198,-11.780,-1.465
0.027,0.993,0.243,-10.681,-14.282,-1.099
0.011,0.990,0.220,-5.859,-15.015,-0.854
-0.008,0.986,0.211,-1.892,-13.916,-0.427
-0.018,0.984,0.220,1.892,-11.597,0.122
-0.021,0.971,0.239,5.798,-9.216,1.038
-0.023,0.961,0.255,7.263,-7.263,2.014
-0.021,0.952,0.267,6.592,-5.554,2.930
-0.023,0.940,0.262,5.371,-5.066,3.357
-0.033,0.935,0.253,3.052,-5.005,3.418
-0.036,0.937,0.250,0.183,-4.395,3.113
-0.024,0.939,0.247,-1.648,-3.662,2.930
-0.022,0.941,0.240,-2.625,-3.296,3.235
-0.027,0.936,0.236,-3.967,-3.174,4.150
-0.038,0.931,0.243,-4.761,-2.441,4.211
-0.040,0.928,0.246,-4.761,-1.587,3.479
-0.050,0.942,0.242,-4.089,-0.671,2.441
-0.045,0.951,0.245,-2.014,0.671,1.160
-0.033,0.958,0.254,1.892,1.892,0.061
-0.027,0.958,0.276,6.165,2.441,-0.244
-0.019,0.956,0.287,7.812,2.197,0.305
-0.018,0.943,0.290,5.249,1.770,2.686
-0.029,0.930,0.301,2.136,1.038,4.211
-0.025,0.924,0.295,-0.671,1.221,4.578
-0.032,0.931,0.286,-3.784,0.854,4.211
-0.042,0.931,0.279,-6.775,0.671,3.967
-0.047,0.939,0.271,-8.423,1.160,3.845
-0.040,0.942,0.271,-8.179,2.441,3.784
-0.034,0.937,0.262,-7.080,3.784,3.296
-0.038,0.938,0.258,-6.226,4.822,1.831
-0.032,0.953,0.265,-4.822,5.676,0.183
-0.012,0.961,0.277,-2.991,6.165,-0.549
-0.003,0.965,0.282,-0.916,5.615,-0.610
-0.005,0.971,0.289,0.366,4.456,0.000
-0.004,0.972,0.285,0.305,3.113,1.770
-0.018,0.956,0.297,0.305,1.770,4.028
-0.027,0.942,0.296,-0.061,1.221,4.822
-0.035,0.928,0.287,-1.648,0.977,5.127
-0.046,0.927,0.279,-4.028,1.038,4.517
-0.043,0.934,0.267,-5.432,2.014,3.418
-0.033,0.942,0.264,-5.737,2.991,2.380
-0.024,0.951,0.259,-4.700,3.296,1.648
-0.023,0.955,0.261,-3.052,2.808,1.099
-0.027,0.956,0.267,-0.427,1.953,0.977
-0.029,0.953,0.273,2.197,1.587,0.671
-0.465,1.452,-3.069,-58.838,-51.208,12.878
-1.497,1.103,-0.340,-199.768,-49.255,6.470
-0.747,1.584,-0.692,-210.876,21.301,45.105
-0.087,1.429,-0.210,-10.559,71.777,55.969
0.050,0.939,-1.027,170.959,24.963,22.644
-0.225,1.112,-1.770,156.311,-29.785,-6.470
-0.551,1.438,-0.879,-9.094,-76.172,-18.250
-0.530,1.294,-0.930,-12.024,-58.533,-16.479
-0.435,1.163,-0.977,42.297,-27.100,-16.602
-0.320,1.181,-0.845,54.932,-6.592,-20.630
-0.257,1.151,-0.657,51.025,3.113,-23.315
-0.219,1.080,-0.567,58.105,10.010,-26.733
-0.200,0.999,-0.478,61.096,14.832,-30.396
-0.163,0.972,-0.375,55.664,17.334,-35.034
-0.118,0.992,-0.311,47.424,20.508,-38.879
-0.064,1.000,-0.204,39.734,25.024,-40.710
0.052,1.000,-0.159,36.621,30.823,-38.452
0.127,0.985,-0.112,34.424,34.241,-32.898
0.208,0.974,-0.047,32.166,32.959,-26.611
0.230,0.921,-0.039,36.682,32.898,-20.020
0.193,0.910,-0.022,36.194,33.875,-14.709
0.122,0.899,0.028,30.701,37.720,-10.132
0.061,0.854,0.024,25.757,46.753,-4.700
0.056,0.863,0.051,20.996,58.167,-1.343
0.088,0.846,0.089,19.226,70.496,3.479
0.095,0.828,0.132,26.611,82.581,5.371
0.112,0.825,0.173,34.607,91.370,7.202
0.145,0.843,0.282,37.415,97.839,10.193
0.170,0.839,0.358,38.452,101.440,14.343
0.193,0.829,0.443,36.438,97.900,18.433
0.211,0.828,0.486,33.020,87.830,21.118
0.209,0.789,0.500,30.090,78.186,22.095
0.146,0.793,0.491,26.062,71.167,19.531
0.093,0.794,0.481,22.034,69.153,14.587
0.077,0.817,0.500,21.179,72.937,9.827
0.090,0.845,0.527,21.851,78.918,6.165
0.126,0.865,0.598,23.010,84.106,5.310
0.135,0.875,0.646,27.466,86.304,6.958
0.129,0.888,0.671,30.273,85.815,11.353
0.124,0.895,0.721,28.931,84.534,16.418
0.114,0.886,0.751,30.090,81.970,20.813
0.083,0.863,0.753,32.959,76.294,23.743
0.056,0.845,0.746,33.447,68.970,25.330
0.026,0.856,0.753,32.043,62.805,24.780
0.018,0.849,0.765,30.640,58.228,23.926
0.025,0.837,0.781,30.518,55.359,22.217
0.024,0.836,0.801,29.419,52.002,20.447
0.028,0.831,0.816,25.208,47.119,18.982
0.024,0.836,0.812,20.447,41.321,16.602
-0.002,0.834,0.782,17.090,35.889,13.489
-0.020,0.849,0.751,12.695,32.715,11.047
-0.004,0.856,0.732,7.141,31.799,10.254
0.011,0.863,0.709,1.892,30.640,10.620
0.006,0.864,0.688,-2.380,29.175,11.047
-0.008,0.864,0.665,-4.395,28.137,10.986
-0.029,0.866,0.644,-5.188,27.161,10.559
-0.033,0.863,0.629,-4.883,25.574,10.071
-0.033,0.859,0.618,-3.906,22.705,8.911
-0.036,0.860,0.589,-3.540,19.104,7.324
-0.042,0.865,0.573,-3.418,15.320,5.432
-0.031,0.874,0.553,-4.456,11.658,3.601
-0.015,0.884,0.528,-5.371,7.446,2.014
-0.005,0.892,0.505,-6.592,2.441,0.671
-0.021,0.883,0.459,-8.240,-2.441,-0.977
-0.072,0.913,0.400,-10.254,-5.371,-2.319
-0.037,0.935,0.372,-11.230,-5.493,-1.770
-0.020,0.948,0.360,-8.850,-5.066,0.244
-0.037,0.936,0.332,-4.333,-4.089,1.465
-0.022,0.935,0.320,-1.282,-3.723,1.770
-0.024,0.936,0.309,-0.671,-4.822,2.930
-0.030,0.922,0.305,0.244,-6.287,3.479
-0.026,0.905,0.300,2.075,-6.714,2.808
-0.034,0.903,0.303,0.732,-6.775,0.305
-0.051,0.905,0.303,-2.075,-6.714,-1.831
-0.055,0.916,0.294,-5.066,-5.798,-2.319
-0.046,0.923,0.278,-8.606,-4.089,-2.136
-0.032,0.941,0.263,-10.864,-2.930,-1.770
-0.027,0.954,0.246,-11.414,-2.441,-1.038
-0.039,0.967,0.238,-10.315,-2.563,-0.061
-0.048,0.978,0.222,-7.263,-2.319,1.221
-0.039,0.976,0.223,-2.747,-1.404,2.502
-0.022,0.965,0.240,2.014,-0.061,2.747
-0.015,0.957,0.263,4.578,0.793,2.441
-0.023,0.948,0.286,5.066,1.465,2.747
-0.024,0.941,0.303,3.296,2.319,3.357
-0.027,0.935,0.311,0.549,3.113,3.540
-0.031,0.933,0.321,-2.136,3.357,3.601
-0.027,0.935,0.329,-4.395,3.052,3.418
-0.024,0.943,0.324,-6.836,2.014,2.991
-0.035,0.951,0.308,-8.850,0.977,2.625
-0.037,0.957,0.293,-9.399,0.793,2.380
-0.029,0.964,0.280,-7.996,1.343,2.441
-0.016,0.967,0.279,-5.493,1.648,2.747
-0.008,0.964,0.276,-2.930,1.709,2.930
-0.019,0.958,0.276,-0.610,1.404,3.113
-0.028,0.967,0.293,2.136,1.648,3.845
-0.034,0.953,0.298,3.723,2.014,5.615
-0.039,0.928,0.319,4.761,2.380,7.324
-0.036,0.918,0.329,3.967,3.296,7.446
-0.052,0.914,0.338,1.465,3.113,6.714
-0.059,0.919,0.343,-1.038,3.418,6.226
-0.043,0.925,0.342,-2.258,3.906,6.165
-0.035,0.921,0.337,-2.869,3.113,6.653
-0.053,0.914,0.328,-3.906,1.343,6.165
-0.074,0.911,0.311,-4.944,0.366,4.639
-0.082,0.915,0.307,-5.310,-0.183,3.418
-0.068,0.917,0.309,-4.150,-0.366,2.075
-0.042,0.918,0.307,-1.831,-0.671,1.160
-0.044,0.918,0.288,0.122,-1.770,0.061
-0.062,0.929,0.280,0.610,-2.380,-0.793
-0.061,0.936,0.291,1.282,-1.343,-0.488
-0.048,0.932,0.305,2.625,0.916,0.793
-0.036,0.928,0.323,3.357,2.136,1.709
-0.028,0.930,0.320,2.502,1.953,2.258
-0.043,0.936,0.312,1.282,0.366,2.075
-0.056,0.934,0.311,1.282,-0.732,1.526
-0.048,0.936,0.315,1.648,-1.343,0.977
-0.041,0.932,0.317,1.587,-2.136,0.000
-0.047,0.940,0.304,0.122,-2.930,-1.404
-0.412,1.230,-1.233,-48.523,-62.012,16.113
-0.439,1.247,-1.325,-30.640,-57.190,16.418
-0.462,1.303,-2.556,-15.747,-49.500,14.465
-1.158,1.383,-0.567,-25.391,-45.898,10.254
-0.118,1.423,-1.227,48.523,13.611,24.353
-0.100,1.130,-1.066,42.847,16.968,20.386
-0.589,1.390,-0.763,-0.427,-33.691,-4.517
-0.524,1.338,-1.078,28.687,-30.823,-6.836
-0.422,1.339,-0.904,29.480,-19.958,-2.380
-0.337,1.249,-0.813,31.372,-7.385,-0.610
-0.300,1.179,-0.725,37.476,-0.793,-2.380
-0.276,1.146,-0.611,36.926,1.038,-7.874
-0.265,1.133,-0.511,35.461,2.441,-14.160
-0.264,1.077,-0.450,38.696,5.615,-19.470
-0.240,0.998,-0.390,44.067,8.423,-22.705
-0.208,0.973,-0.306,46.936,12.390,-26.062
-0.154,0.935,-0.234,48.157,18.311,-28.870
-0.104,0.895,-0.143,47.974,23.865,-31.128
-0.012,0.874,-0.052,46.326,27.344,-31.982
0.055,0.911,0.005,41.748,27.466,-31.250
0.072,0.804,0.077,35.400,26.367,-27.527
0.094,0.821,0.146,31.921,22.095,-27.405
0.132,0.791,0.137,32.898,18.066,-25.452
0.124,0.793,0.150,28.748,16.663,-23.560
0.068,0.788,0.186,22.827,22.522,-22.827
0.028,0.794,0.199,20.203,35.278,-23.071
0.027,0.817,0.240,19.043,50.659,-20.264
0.034,0.831,0.291,20.752,68.054,-12.878
0.058,0.837,0.361,20.752,84.961,-2.319
0.089,0.838,0.436,19.104,99.121,7.812
0.112,0.824,0.467,15.747,109.131,15.381
0.109,0.838,0.512,10.498,114.014,19.165
0.090,0.849,0.530,7.996,114.502,20.813
0.065,0.844,0.539,8.850,111.633,21.545
0.042,0.850,0.546,10.132,107.422,21.057
0.023,0.864,0.567,9.216,102.661,20.020
0.015,0.869,0.576,7.385,98.450,19.348
0.007,0.859,0.579,7.507,94.299,18.555
-0.001,0.856,0.593,10.437,89.233,16.846
-0.001,0.855,0.619,15.930,84.290,15.137
0.005,0.795,0.634,22.705,79.956,14.160
-0.017,0.869,0.660,25.085,76.599,15.991
-0.031,0.785,0.687,28.809,75.745,17.456
-0.012,0.797,0.693,31.799,76.599,14.099
0.008,0.778,0.742,25.513,73.181,13.428
0.019,0.769,0.744,16.479,67.383,12.085
0.027,0.782,0.748,7.263,59.570,9.827
0.000,0.783,0.724,-1.465,49.805,7.324
-0.040,0.796,0.675,-8.362,41.992,3.784
-0.070,0.821,0.599,-15.808,37.354,1.099
